time,seconds_elapsed,z,y,x
1705467138758844700,0.1898447265625,-0.0038941511884331703,-0.05207473039627075,-0.06620056927204132
1705467138777460200,0.208460205078125,-0.008780929259955883,-0.09361234307289124,-0.08880192041397095
1705467138796077300,0.227077392578125,-0.007559234742075205,-0.09361234307289124,-0.06314633786678314
1705467138814693000,0.245693115234375,-0.0038941511884331703,-0.06795676052570343,-0.016111096367239952
1705467138833310200,0.264310302734375,-0.008780929259955883,-0.04718795046210289,0.008322793990373611
1705467138851925800,0.28292578125,-0.013667707331478596,-0.05635065957903862,-0.002672456670552492
1705467138870543000,0.301543212890625,-0.014278554357588291,-0.07040014863014221,-0.04359922185540199
1705467138889158700,0.32015869140625,-0.014278554357588291,-0.08017370104789734,-0.09124530851840973
1705467138907776000,0.33877587890625,-0.002061609411612153,-0.10033166408538818,-0.11934428662061691
1705467138926391600,0.3573916015625,0.009544488042593002,-0.13026317954063416,-0.135226309299469
1705467138945009000,0.3760087890625,0.02053973823785782,-0.14370182156562805,-0.14011308550834656
1705467138963624400,0.39462451171875,0.015042114071547985,-0.01969982497394085,0.03214583545923233
1705467138982241500,0.413241455078125,0.07918107509613037,0.1782146841287613,0.12438376992940903
1705467139000857300,0.431857421875,0.08590039610862732,0.16050012409687042,0.07368344813585281
1705467139019474400,0.450474365234375,0.08162446320056915,0.08353336155414581,-0.09002361446619034
1705467139038090200,0.46909033203125,-0.0008399150101467967,0.041384901851415634,-0.19508934020996094
1705467139056707300,0.487707275390625,-0.07047650218009949,0.07925742864608765,-0.1492757946252823
1705467139075323100,0.5063232421875,-0.08758022636175156,0.11346487700939178,-0.04421006888151169
1705467139093940200,0.524940185546875,-0.0955212414264679,0.025502873584628105,-0.058870404958724976
1705467139112555800,0.5435556640625,-0.12972868978977203,-0.09361234307289124,-0.1083490327000618
1705467139131173000,0.562173095703125,-0.12728530168533325,-0.04718795046210289,-0.10040801763534546
1705467139149788700,0.58078857421875,-0.13950224220752716,0.031000498682260513,-0.06253548711538315
1705467139168406000,0.599406005859375,-0.14194563031196594,0.04932591691613197,-0.031382277607917786
1705467139187021600,0.618021484375,-0.09979717433452606,0.03649812191724777,-0.049707695841789246
1705467139205639000,0.636638916015625,-0.06620056927204132,0.007177455350756645,-0.10407309979200363
1705467139224254500,0.65525439453125,-0.05154023692011833,-0.03924693539738655,-0.14377817511558533
1705467139242871800,0.673871826171875,-0.04909684881567955,-0.09361234307289124,-0.1217876747250557
1705467139261487400,0.6924873046875,-0.008170082233846188,-0.10399674624204636,-0.0552053228020668
1705467139280104400,0.7111044921875,0.013209572061896324,-0.07467607408761978,-0.016111096367239952
1705467139298720300,0.72972021484375,-0.02710634656250477,-0.03802524134516716,-0.016721943393349648
1705467139317337300,0.74833740234375,-0.0552053228020668,-0.006261184345930815,-0.02038702741265297
1705467139335953200,0.766953125,-0.05337277799844742,-0.008093725889921188,0.0022143214009702206
1705467139354570200,0.7855703125,-0.03687990456819534,-0.03130592033267021,0.02053973823785782
1705467139373186000,0.80418603515625,-0.03077143058180809,-0.051463883370161057,0.015652960166335106
1705467139391803100,0.82280322265625,-0.018554486334323883,-0.06795676052570343,-0.0051158457063138485
1705467139410419000,0.8414189453125,-0.010002624243497849,-0.05390727147459984,-0.038101598620414734
1705467139429036000,0.8600361328125,-0.02405211143195629,-0.03558185324072838,-0.0558161698281765
1705467139447651800,0.87865185546875,0.026037365198135376,-0.04963133856654167,-0.05215108394622803
1705467139466269000,0.89726904296875,0.06452073901891708,0.07009471952915192,0.21356746554374695
1705467139484884700,0.915884765625,0.14278554916381836,0.31687700748443604,0.35833826661109924
1705467139503501800,0.934501708984375,0.011377030052244663,0.33764582872390747,0.2844257652759552
1705467139522117600,0.95311767578125,-0.16332527995109558,0.1751604527235031,0.010766183026134968
1705467139540734700,0.971734619140625,-0.32581067085266113,-0.072843536734581,-0.17798562347888947
1705467139559350500,0.9903505859375,-0.32397812604904175,-0.1247655525803566,-0.19081340730190277
1705467139577967600,1.008967529296875,-0.1853157877922058,0.07498150318861008,-0.05459447205066681
1705467139596583400,1.02758349609375,-0.002061609411612153,0.28572380542755127,0.024815669283270836
1705467139615200500,1.046200439453125,0.07795938104391098,0.25945737957954407,-0.06314633786678314
1705467139633816300,1.06481640625,0.09506310522556305,0.026724567636847496,-0.22135578095912933
1705467139652433400,1.083433349609375,0.11835165321826935,-0.23655059933662415,-0.35207709670066833
1705467139671049200,1.10204931640625,0.1629435122013092,-0.27686652541160583,-0.39117130637168884
1705467139689666300,1.120666259765625,0.1776038408279419,-0.2157817929983139,-0.3319191336631775
1705467139708282000,1.1392822265625,0.10857810080051422,-0.1241547018289566,-0.21952323615550995
1705467139726899200,1.157899169921875,-0.002061609411612153,-0.01175880990922451,-0.07902836054563522
1705467139745515000,1.176514892578125,-0.057648710906505585,0.1104106456041336,0.048638712614774704
1705467139764132000,1.195132080078125,-0.07414158433675766,0.15561333298683167,0.11338852345943451
1705467139782748000,1.213747802734375,-0.0692548081278801,0.10308047384023666,0.09506310522556305
1705467139801365000,1.232364990234375,-0.07230904698371887,0.021226942539215088,0.039476003497838974
1705467139819980800,1.250980712890625,-0.07902836054563522,-0.00015271181473508477,0.026037365198135376
1705467139838598000,1.269597900390625,-0.06436803191900253,0.031000498682260513,0.09628479927778244
1705467139857213700,1.288213623046875,-0.017332790419459343,0.06276455521583557,0.21723255515098572
1705467139875830800,1.306830810546875,0.06513158977031708,0.06704048812389374,0.2593810260295868
1705467139894446600,1.325446533203125,0.13240113854408264,0.024281177669763565,0.10300412029027939
1705467139913063700,1.344063720703125,0.12323843687772751,-0.07773031294345856,-0.13828055560588837
1705467139931679500,1.362679443359375,0.08345700800418854,-0.18646112084388733,-0.2757211923599243
1705467139950296600,1.381296630859375,0.08956547826528549,-0.28847262263298035,-0.29893338680267334
1705467139968912400,1.399912353515625,0.11651911586523056,-0.3232909142971039,-0.27388864755630493
1705467139987529500,1.418529541015625,0.07429429888725281,-0.25060009956359863,-0.1987544298171997
1705467140006145300,1.437145263671875,-0.031382277607917786,-0.09972081333398819,-0.06681142002344131
1705467140024762400,1.455762451171875,-0.17004460096359253,0.060932014137506485,0.0883437842130661
1705467140043378200,1.474378173828125,-0.23601610958576202,0.14339639246463776,0.1805817186832428
1705467140061995300,1.492995361328125,-0.20303036272525787,0.08353336155414581,0.16408884525299072
1705467140080611000,1.511611083984375,-0.1456107199192047,-0.03374931216239929,0.08101361989974976
1705467140099228200,1.530228271484375,-0.10346225649118423,-0.13270656764507294,-0.002672456670552492
1705467140117844000,1.548843994140625,-0.06375718116760254,-0.14553436636924744,-0.0429883748292923
1705467140136461000,1.5674609375,-0.0423775278031826,-0.07895200699567795,-0.022219568490982056
1705467140155076900,1.586076904296875,-0.041766680777072906,-0.011147962883114815,0.04130854457616806
1705467140173694000,1.60469384765625,-0.04359922185540199,0.0010689827613532543,0.08956547826528549
1705467140192309800,1.623309814453125,-0.032603971660137177,-0.01725643500685692,0.08101361989974976
1705467140210926800,1.6419267578125,-0.018554486334323883,-0.05512896552681923,0.039476003497838974
1705467140229542700,1.660542724609375,-0.02038702741265297,-0.07773031294345856,0.019928891211748123
1705467140248159700,1.67915966796875,-0.039323292672634125,-0.03924693539738655,0.0358109213411808
1705467140266775600,1.697775634765625,-0.05276193097233772,0.012064233422279358,0.06757497787475586
1705467140285392600,1.716392578125,-0.04421006888151169,0.004123218823224306,0.09078717231750488
1705467140304008400,1.735008544921875,-0.040544986724853516,-0.029473381116986275,0.09200886636972427
1705467140322625500,1.75362548828125,-0.04421006888151169,-0.029473381116986275,0.06696412712335587
1705467140341241300,1.772241455078125,-0.050929389894008636,-0.020310672000050545,0.05719057470560074
1705467140359858400,1.7908583984375,-0.09307785332202911,0.05238015204668045,0.20073968172073364
1705467140378474200,1.80947412109375,-0.09796462953090668,0.35108447074890137,0.47439923882484436
1705467140397091300,1.82809130859375,-0.1205659806728363,0.1501157134771347,0.21417832374572754
1705467140415707100,1.84670703125,-0.16882291436195374,-0.0984991192817688,-0.135226309299469
1705467140434324500,1.865324462890625,-0.11751174181699753,-0.23471805453300476,-0.2525089979171753
1705467140452940000,1.88393994140625,-0.09063446521759033,-0.18340688943862915,-0.16576866805553436
1705467140471557000,1.90255712890625,-0.08758022636175156,-0.0459662564098835,-0.002672456670552492
1705467140490173000,1.9211728515625,-0.0814717561006546,0.05238015204668045,0.11338852345943451
1705467140508790300,1.939790283203125,-0.08269345015287399,0.0584886260330677,0.10789089649915695
1705467140527405800,1.95840576171875,-0.09918632358312607,-0.0007635590736754239,0.011987877078354359
1705467140546023200,1.977023193359375,-0.11506835371255875,-0.06673506647348404,-0.07291989028453827
1705467140564638700,1.995638671875,-0.11751174181699753,-0.09239064902067184,-0.07353074103593826
1705467140583256000,2.014256103515625,-0.11384665966033936,-0.09300149232149124,-0.01916533336043358
1705467140601871600,2.03287158203125,-0.09368869662284851,-0.05268557742238045,0.018096350133419037
1705467140620489000,2.051489013671875,-0.057648710906505585,0.04321744292974472,0.016874656081199646
1705467140639104500,2.0701044921875,-0.053983625024557114,0.10124793648719788,0.015042114071547985
1705467140657721900,2.088721923828125,-0.056427016854286194,0.09147437661886215,0.0364217683672905
1705467140676337400,2.10733740234375,-0.08513683825731277,0.07070557028055191,0.06085565686225891
1705467140694954800,2.125954833984375,-0.09185615926980972,0.04077405482530594,0.06513158977031708
1705467140713570300,2.1445703125,-0.0814717561006546,-0.0038177953101694584,0.05474718660116196
1705467140732187600,2.163187744140625,-0.0552053228020668,-0.03008422814309597,0.010766183026134968
1705467140750803200,2.18180322265625,-0.08086090534925461,-0.04474456235766411,-0.02405211143195629
1705467140769420500,2.200420654296875,-0.10162971168756485,-0.015423892997205257,-0.040544986724853516
1705467140788036000,2.2190361328125,-0.08758022636175156,0.04688252881169319,-0.009391776286065578
1705467140806653400,2.2376533203125,0.05169294774532318,0.16905197501182556,0.14881765842437744
1705467140825269000,2.25626904296875,0.22036315500736237,0.3486410677433014,0.4524087607860565
1705467140843886300,2.27488623046875,0.36696648597717285,0.4622586667537689,0.6484907269477844
1705467140862502000,2.293501953125,0.32542887330055237,0.44332239031791687,0.553809404373169
1705467140881119200,2.312119140625,0.1910424828529358,0.28694549202919006,0.23800136148929596
1705467140899734800,2.33073486328125,0.09078717231750488,0.042606595903635025,-0.10957072675228119
1705467140918352100,2.34935205078125,0.021150587126612663,-0.2047865390777588,-0.36368319392204285
1705467140936967700,2.3679677734375,-0.017332790419459343,-0.2811424434185028,-0.4211028218269348
1705467140955585000,2.3865849609375,-0.047264307737350464,-0.26098448038101196,-0.36123979091644287
1705467140974200600,2.40520068359375,-0.12728530168533325,-0.2298312783241272,-0.3013767600059509
1705467140992818000,2.42381787109375,-0.21830153465270996,-0.17180079221725464,-0.2268534004688263
1705467141011433500,2.44243359375,-0.28732728958129883,-0.08017370104789734,-0.11323580890893936
1705467141030050800,2.46105078125,-0.3172588050365448,0.029167955741286278,-0.040544986724853516
1705467141048666600,2.47966650390625,-0.2799971103668213,0.06398624926805496,-0.039323292672634125
1705467141067283700,2.49828369140625,-0.17859646677970886,0.04932591691613197,-0.08696937561035156
1705467141085899500,2.5168994140625,-0.1083490327000618,-0.01175880990922451,-0.17554223537445068
1705467141104516600,2.5355166015625,-0.058870404958724976,-0.03680354729294777,-0.2928248941898346
1705467141123132200,2.554132080078125,-0.03077143058180809,-0.06062658876180649,-0.3404709994792938
1705467141141749500,2.57274951171875,0.02664821222424507,-0.028251685202121735,-0.28427302837371826
1705467141160365300,2.591365234375,0.09994988143444061,0.03894151374697685,-0.20608459413051605
1705467141178982400,2.609982421875,0.11957334727048874,0.09391776472330093,-0.15721681714057922
1705467141197598200,2.62859814453125,0.1366770714521408,0.1519482582807541,-0.11934428662061691
1705467141216215300,2.64721533203125,0.06329904496669769,0.14217470586299896,-0.05948125198483467
1705467141234831000,2.6658310546875,-0.008170082233846188,0.08292251825332642,-0.0038941511884331703
1705467141253448200,2.6844482421875,-0.005726693198084831,0.025502873584628105,-0.010613471269607544
1705467141272064000,2.70306396484375,0.043141089379787445,0.11835165321826935,-0.05276193097233772
1705467141290681000,2.72168115234375,0.051082100719213486,0.1776038408279419,-0.06497887521982193
1705467141309297000,2.740296875,0.07246175408363342,0.48302745819091797,-0.082082599401474
1705467141327914000,2.7589140625,0.19409671425819397,0.5825955867767334,-0.10285140573978424
1705467141346529800,2.77752978515625,0.270452618598938,0.6778877377510071,-0.18898087739944458
1705467141365147000,2.79614697265625,0.2802261710166931,0.8196043372154236,-0.3875062167644501
1705467141383762700,2.8147626953125,0.14278554916381836,0.9087880253791809,-0.6446729302406311
1705467141402379800,2.8333798828125,-0.03565821051597595,0.9210049510002136,-1.0534061193466187
1705467141420995600,2.85199560546875,-0.20180866122245789,0.9448279738426208,-1.6007252931594849
1705467141439612700,2.87061279296875,-0.30870693922042847,0.49952033162117004,-2.0784077644348145
1705467141458228500,2.889228515625,-0.30870693922042847,0.3578037917613983,-2.0704667568206787
1705467141476845600,2.907845458984375,-0.047264307737350464,0.5263976454734802,-1.3734900951385498
1705467141495461400,2.92646142578125,-0.18287239968776703,0.8513683676719666,-0.8248728513717651
1705467141514078500,2.945078369140625,-0.7191963195800781,0.5783196687698364,-0.89764004945755
1705467141620833800,3.051833740234375,-1.1645039319992065,0.10857810080051422,-0.9434536099433899
1705467141632706000,3.0637060546875,-1.0056836605072021,-0.2176143378019333,-1.2274975776672363
1705467141644393000,3.07539306640625,-0.7692857384681702,-0.7484406232833862,-1.5329211950302124
1705467141656028200,3.087028076171875,-0.5829773545265198,-1.3129398822784424,-1.7351115942001343
1705467141667664400,3.098664306640625,-0.5353312492370605,-1.6788372993469238,-1.7748167514801025
1705467141679299600,3.110299560546875,-0.6006919145584106,-1.7191532850265503,-1.6477605104446411
1705467141690934000,3.12193408203125,-0.6746044158935547,-1.5139086246490479,-1.3521103858947754
1705467141702569500,3.133569580078125,-0.7772268056869507,-1.0691354274749756,-0.9147437810897827
1705467141714205400,3.145205322265625,-0.8841250538825989,-0.3086305856704712,-0.44003909826278687
1705467141725840600,3.156840576171875,-0.5823665261268616,0.3871244490146637,-0.013667707331478596
1705467141737475300,3.168475341796875,0.06818582862615585,0.7566870450973511,0.3534514904022217
1705467141749110500,3.180110595703125,0.6180247068405151,0.7053758502006531,0.5648046731948853
1705467141760746500,3.19174658203125,0.682774543762207,0.3578037917613983,0.5037199258804321
1705467141772381700,3.203381591796875,0.3248180150985718,-0.1913478970527649,0.179360032081604
1705467141784016400,3.215016357421875,-0.07780666649341583,-0.3984251320362091,-0.17920731008052826
1705467141795651600,3.226651611328125,-0.16882291436195374,-0.4100312292575836,-0.3569638729095459
1705467141807287800,3.238287841796875,-0.26961269974708557,-0.621995210647583,-0.3838411569595337
1705467141818923000,3.249923095703125,-0.32214558124542236,-0.5181511640548706,-0.373456746339798
1705467141830557400,3.261557373046875,-0.3209238648414612,-0.31290650367736816,-0.39117130637168884
1705467141842193000,3.27319287109375,-0.4638621509075165,0.025502873584628105,-0.45225605368614197
1705467141853828900,3.284828857421875,-0.6568898558616638,0.4524851143360138,-0.5530458092689514
1705467141865464000,3.296464111328125,-0.8077691197395325,0.6394043564796448,-0.7014816999435425
1705467141877098800,3.3080986328125,-0.9562050104141235,0.6387935280799866,-0.8805363178253174
1705467141888734000,3.31973388671875,-1.1217446327209473,0.6394043564796448,-1.0882244110107422
1705467141900370000,3.331369873046875,-1.2695696353912354,0.7383615970611572,-1.2745327949523926
1705467141912005400,3.34300537109375,-1.304998755455017,0.9478822350502014,-1.3857070207595825
1705467141923639800,3.354639892578125,-1.0795961618423462,1.3608149290084839,-1.4156385660171509
1705467141935275000,3.36627490234375,-0.666663408279419,1.358371615409851,-1.3863178491592407
1705467141946911200,3.3779111328125,-0.2244100123643875,1.1622896194458008,-1.410140872001648
1705467141958546400,3.38954638671875,-0.06192464008927345,0.8727480173110962,-1.4999353885650635
1705467141970180900,3.401180908203125,-0.0942995473742485,0.7798992395401001,-1.5585768222808838
1705467141981816000,3.412816162109375,-0.22257746756076813,0.6815528273582458,-1.5145957469940186
1705467141993452300,3.424452392578125,-0.3691807985305786,0.48302745819091797,-1.4174710512161255
1705467142005087500,3.43608740234375,-0.44248247146606445,0.23929941654205322,-1.3429477214813232
1705467142016722200,3.44772216796875,-0.46630552411079407,0.217308908700943,-1.233605980873108
1705467142028357400,3.459357421875,-0.5524349808692932,0.5196782946586609,-1.0692881345748901
1705467142039993300,3.470993408203125,-0.6996491551399231,0.9637642502784729,-0.9379559755325317
1705467142051628800,3.48262890625,-0.870686411857605,1.3748644590377808,-0.9397885203361511
1705467142063263200,3.49426318359375,-1.0166789293289185,1.6003434658050537,-1.0894460678100586
1705467142074898400,3.5058984375,-1.3349303007125854,1.3907464742660522,-1.3850961923599243
1705467142086534700,3.51753466796875,-1.6550142765045166,1.0578347444534302,-1.5836215019226074
1705467142098169900,3.529169921875,-1.7130447626113892,1.0236272811889648,-1.6685292720794678
1705467142109804300,3.54080419921875,-1.55911123752594,1.2184876203536987,-1.730224847793579
1705467142121439700,3.552439697265625,-1.3514232635498047,1.6119495630264282,-1.8029156923294067
1705467142133075700,3.56407568359375,-1.4155621528625488,1.2948434352874756,-1.901872992515564
1705467142144711000,3.5757109375,-1.5682740211486816,0.7365291118621826,-2.189582109451294
1705467142156345600,3.587345703125,-1.533455729484558,0.6736118197441101,-2.3679494857788086
1705467142167980800,3.598980712890625,-1.4778685569763184,0.6516213417053223,-2.504779100418091
1705467142179617000,3.610616943359375,-1.4882529973983765,0.6742226481437683,-2.67825984954834
1705467142191252200,3.622252197265625,-1.5200170278549194,0.7982246279716492,-2.88106107711792
1705467142202886700,3.63388671875,-1.514519453048706,0.8977927565574646,-3.121734857559204
1705467142214521900,3.64552197265625,-1.4149513244628906,0.9772028923034668,-3.3306446075439453
1705467142226158000,3.657157958984375,-1.2237560749053955,0.9857547879219055,-3.474193811416626
1705467142237793300,3.668793212890625,-1.1028083562850952,1.1238062381744385,-3.6098783016204834
1705467142249428000,3.680427978515625,-1.176110029220581,1.596678376197815,-3.779693841934204
1705467142261063200,3.692063232421875,-1.3728028535842896,2.4640815258026123,-4.085117340087891
1705467142272699100,3.70369921875,-1.6800590753555298,2.604576349258423,-4.352668285369873
1705467142284334600,3.71533447265625,-2.014192581176758,2.0487053394317627,-4.344116687774658
1705467142295969000,3.726968994140625,-2.212106943130493,1.3687559366226196,-3.996544599533081
1705467142307604200,3.738604248046875,-2.055730104446411,0.6754443645477295,-3.4931299686431885
1705467142319240400,3.750240478515625,-1.6079790592193604,-0.04169032722711563,-2.895110607147217
1705467142330875600,3.761875732421875,-1.116857886314392,-0.7209524512290955,-2.248223304748535
1705467142342510000,3.773510009765625,-0.7466844320297241,-1.1712232828140259,-1.5695720911026
1705467142354145500,3.7851455078125,-0.6190173625946045,-1.2457466125488281,-0.8634325861930847
1705467142365781500,3.796781494140625,-0.8047149181365967,-0.8333483934402466,-0.135226309299469
1705467142377416700,3.808416748046875,-1.1113601922988892,-0.34100547432899475,0.6222242712974548
1705467142389051400,3.820051513671875,-1.3306543827056885,-0.28969430923461914,1.316146731376648
1705467142400686600,3.8316865234375,-1.4192272424697876,-0.7209524512290955,1.8391083478927612
1705467142412322800,3.84332275390625,-1.4522130489349365,-1.394182562828064,2.204395055770874
1705467142423958000,3.8549580078125,-1.361196756362915,-1.491307258605957,2.404142141342163
1705467142435592400,3.866592529296875,-0.9952992796897888,-0.6482616662979126,2.5702924728393555
1705467142447228000,3.878227783203125,-0.6959841251373291,-1.094791054725647,2.661919593811035
1705467142458863900,3.88986376953125,-0.12423106282949448,-0.9066500663757324,2.7932517528533936
1705467142470499000,3.9014990234375,0.43538138270378113,-1.061805248260498,2.950850486755371
1705467142482133800,3.9131337890625,1.0004150867462158,-0.709346354007721,3.0736308097839355
1705467142493769000,3.92476904296875,1.6265335083007812,-0.6372663974761963,3.1719770431518555
1705467142505405200,3.9364052734375,1.6350853443145752,-0.5835118293762207,3.303309202194214
1705467142517040400,3.948040283203125,0.9912523627281189,-0.8144121170043945,3.4786224365234375
1705467142528674800,3.9596748046875,0.3242071866989136,-1.148621916770935,3.5684170722961426
1705467142540310300,3.971310302734375,0.15927842259407043,-1.5249037742614746,3.6716501712799072
1705467142551946200,3.9829462890625,0.19409671425819397,-1.8504854440689087,3.734567403793335
1705467142563581400,3.99458154296875,0.293664813041687,-1.9653246402740479,3.572082042694092
1705467142575216000,4.006216064453125,0.36879903078079224,-1.9653246402740479,3.2678802013397217
1705467142586851300,4.017851318359375,0.3859027624130249,-1.6873892545700073,2.890376567840576
1705467142598487600,4.029487548828125,0.29916244745254517,-1.1877161264419556,2.4756112098693848
1705467142610122800,4.041122802734375,0.17454960942268372,-0.6006155610084534,2.0180866718292236
1705467142621757400,4.05275732421875,0.08712209016084671,-0.18218518793582916,1.548879623413086
1705467142633392600,4.064392578125,0.057801421731710434,0.04077405482530594,1.0724186897277832
1705467142645028900,4.07602880859375,0.10796725004911423,-0.16996824741363525,0.6772005558013916
1705467142656664000,4.0876640625,0.12140589207410812,-0.6134433746337891,0.43469417095184326
1705467142668298500,4.099298583984375,0.1104106456041336,-0.8608365058898926,0.445078581571579
1705467142679934000,4.110933837890625,0.09078717231750488,-0.8987090587615967,0.6521558165550232
1705467142691570000,4.12256982421875,0.06696412712335587,-0.7704311013221741,0.8659523725509644
1705467142703205000,4.134205078125,0.08651123940944672,-0.6146650314331055,1.076083779335022
1705467142714839800,4.14583984375,0.22708246111869812,-0.6311579346656799,1.2550621032714844
1705467142726475000,4.15747509765625,0.2576248347759247,-0.9225320816040039,1.3747881650924683
1705467142738111200,4.169111328125,0.24846212565898895,-1.048366665840149,1.4120497703552246
1705467142749746400,4.180746337890625,0.23746687173843384,-0.9347490072250366,1.4413704872131348
1705467142761380900,4.192380859375,0.2020377367734909,-0.7582141757011414,1.4236558675765991
1705467142773016300,4.204016357421875,0.1776038408279419,-0.669030487537384,1.3216444253921509
1705467142784652300,4.21565234375,0.14034216105937958,-0.5548020005226135,1.1762627363204956
1705467142796287700,4.227287841796875,0.0889546349644661,-0.386208176612854,1.05714750289917
1705467142807922200,4.238922119140625,0.040697697550058365,-0.23655059933662415,0.9789590835571289
1705467142819557400,4.250557373046875,0.016874656081199646,-0.10827267915010452,0.8500702977180481
1705467142831193600,4.262193603515625,-0.02038702741265297,0.03588727489113808,0.6759788393974304
1705467142842828800,4.273828857421875,-0.0680331140756607,0.1757712960243225,0.5458683967590332
1705467142854463500,4.28546337890625,-0.12423106282949448,0.323596328496933,0.47439923882484436
1705467142866098700,4.2970986328125,-0.18226155638694763,0.26128992438316345,0.4566846787929535
1705467142877735000,4.30873486328125,-0.20180866122245789,0.21303297579288483,0.46034976840019226
1705467142889370000,4.3203701171875,-0.20974968373775482,0.26067906618118286,0.4701233208179474
1705467142901004800,4.3320048828125,-0.2140256017446518,0.3321481943130493,0.42614230513572693
1705467142912640000,4.343639892578125,-0.20180866122245789,0.35597124695777893,0.3222982883453369
1705467142924276200,4.355276123046875,-0.19447849690914154,0.4152234196662903,0.25082916021347046
1705467142935911400,4.366911376953125,-0.2274642437696457,0.4769189953804016,0.21234577894210815
1705467142947545900,4.3785458984375,-0.11140327155590057,0.3333698809146881,0.11583191156387329
1705467142959181300,4.390181396484375,-0.004504998680204153,0.11835165321826935,-0.03077143058180809
1705467142970817300,4.4018173828125,0.04008685052394867,-0.13270656764507294,-0.14194563031196594
1705467142982452700,4.41345263671875,0.0364217683672905,-0.2982461750507355,-0.16943375766277313
1705467142994087200,4.425087158203125,0.014431266114115715,-0.28602921962738037,-0.07169819623231888
1705467143005722400,4.436722412109375,-0.016721943393349648,-0.13392825424671173,0.02053973823785782
1705467143017358600,4.448358642578125,-0.03199312463402748,-0.058183200657367706,0.051082100719213486
1705467143028993800,4.459993896484375,0.0016034740256145597,-0.04963133856654167,0.018707197159528732
1705467143040628500,4.47162841796875,0.05047125369310379,-0.06184828653931618,-0.05948125198483467
1705467143052263700,4.483263671875,0.11835165321826935,-0.09116895496845245,-0.11018157750368118
1705467143063900000,4.49489990234375,0.188599094748497,-0.13087402284145355,-0.09613208472728729
1705467143075535000,4.50653515625,0.22280654311180115,-0.10705098509788513,-0.01916533336043358
1705467143087169800,4.518169677734375,0.23868857324123383,0.03405473381280899,0.1420983374118805
1705467143198869800,4.629869873046875,-0.24212458729743958,0.4408790171146393,-0.17126630246639252
1705467143217485300,4.6484853515625,0.02970244735479355,-0.17241163551807404,0.502498209476471
1705467143236102700,4.6671025390625,0.2044811248779297,-0.056961506605148315,0.804256796836853
1705467143254718500,4.685718505859375,0.02970244735479355,0.021226942539215088,0.9093225002288818
1705467143273335800,4.704335693359375,-0.002061609411612153,-0.19440214335918427,0.7816554307937622
1705467143291951600,4.72295166015625,-0.0295497365295887,-0.335507869720459,0.7535564303398132
1705467143310568700,4.741568603515625,-0.0429883748292923,-0.31412819027900696,0.8189170956611633
1705467143329184500,4.7601845703125,-0.025273805484175682,-0.36727190017700195,0.7871530652046204
1705467143347801900,4.7788017578125,0.06635328382253647,-0.47111594676971436,0.7388961315155029
1705467143366417700,4.797417724609375,0.0755159929394722,-0.6152759194374084,0.8158628940582275
1705467143385035000,4.816034912109375,0.06818582862615585,-0.5645755529403687,0.8018133640289307
1705467143403650800,4.83465087890625,-0.016111096367239952,-0.36910444498062134,0.6442148089408875
1705467143422268000,4.853267822265625,-0.04604261368513107,-0.12659808993339539,0.3882697820663452
1705467143440883700,4.8718837890625,-0.009391776286065578,0.08780929446220398,0.14759597182273865
1705467143459501000,4.8905009765625,0.05047125369310379,0.10979979485273361,0.10544750839471817
1705467143478116900,4.909116943359375,-0.06253548711538315,0.31260108947753906,0.27648472785949707
1705467143496734200,4.927734130859375,-0.19692188501358032,0.8415948152542114,0.36994436383247375
1705467143515350000,4.94635009765625,-0.2384594976902008,1.1128109693527222,0.28076067566871643
1705467143533967400,4.96496728515625,-0.15110833942890167,1.3040062189102173,0.2318928837776184
1705467143552583200,4.983583251953125,0.005268557462841272,1.2270394563674927,0.2887016832828522
1705467143571200300,5.0022001953125,0.12323843687772751,0.6577298045158386,0.4530195891857147
1705467143589816000,5.020816162109375,0.111021488904953,-0.1241547018289566,0.6515449285507202
1705467143608433400,5.039433349609375,-0.03626905754208565,-0.44546034932136536,0.887332022190094
1705467143627049200,5.05804931640625,-0.22013407945632935,-0.4369085133075714,1.1591590642929077
1705467143645666600,5.07666650390625,-0.24273543059825897,-0.4124746024608612,1.4578633308410645
1705467143664282400,5.095282470703125,-0.09796462953090668,-0.5578562617301941,1.715640902519226
1705467143682899700,5.113899658203125,0.029091600328683853,-0.6397097706794739,1.8188741207122803
1705467143701515500,5.132515625,0.10491301864385605,-0.8046385645866394,1.7974944114685059
1705467143720132900,5.1511328125,0.18249061703681946,-0.7893673777580261,1.7168625593185425
1705467143738748700,5.169748779296875,0.30343836545944214,-0.6739172339439392,1.6008015871047974
1705467143757366000,5.188365966796875,0.43354883790016174,-0.6934643387794495,1.5079528093338013
1705467143775981800,5.20698193359375,0.5154023766517639,-0.5034908652305603,1.5568206310272217
1705467143794599200,5.22559912109375,0.510515570640564,-0.13270656764507294,1.4871840476989746
1705467143813215000,5.244215087890625,0.5221216678619385,0.2655658423900604,1.1157888174057007
1705467143831832300,5.262832275390625,0.5080721974372864,0.45676103234291077,0.6240568161010742
1705467143850448100,5.2814482421875,0.4903576374053955,0.34253260493278503,0.30275118350982666
1705467143869065500,5.3000654296875,0.4891359508037567,0.1122431829571724,0.23861220479011536
1705467143887681300,5.318681396484375,0.39078953862190247,0.05238015204668045,0.34306707978248596
1705467143906298600,5.337298583984375,0.21791976690292358,0.04443913698196411,0.5202127695083618
1705467143924914400,5.35591455078125,0.02664821222424507,-0.08200624585151672,0.7004127502441406
1705467143943531800,5.37453173828125,0.01748550310730934,-0.23899398744106293,0.789596438407898
1705467143962147600,5.393147705078125,0.08651123940944672,-0.3727695345878601,0.7944832444190979
1705467143980765000,5.411764892578125,0.1763821393251419,-0.23655059933662415,0.8341882824897766
1705467143999380700,5.430380615234375,0.2948864996433258,-0.07101099193096161,0.8268581032752991
1705467144017998000,5.448998046875,0.3755183517932892,-0.10338589549064636,0.7175164818763733
1705467144036614000,5.46761376953125,0.2722851634025574,-0.2011214643716812,0.5745782256126404
1705467144055231200,5.486231201171875,0.13117945194244385,-0.16935740411281586,0.470734179019928
1705467144073847300,5.504847412109375,0.039476003497838974,-0.06123743951320648,0.5428141355514526
1705467144092464600,5.523464599609375,-0.05825955793261528,-0.01969982497394085,0.6686486601829529
1705467144111080400,5.54208056640625,-0.12484190613031387,0.03955236077308655,0.7327876687049866
1705467144129697800,5.56069775390625,-0.1474432498216629,0.18798823654651642,0.6600968241691589
1705467144148313600,5.579313720703125,-0.12239851802587509,0.29794076085090637,0.4579063653945923
1705467144166931000,5.597930908203125,-0.07658497244119644,0.3852919042110443,0.22334103286266327
1705467144185546800,5.616546630859375,-0.03504735976457596,0.49524441361427307,0.08101361989974976
1705467144204164000,5.6351640625,-0.050929389894008636,0.6503996253013611,0.041919391602277756
1705467144222780000,5.65377978515625,-0.09918632358312607,0.7175928354263306,0.012598725035786629
1705467144241397200,5.672397216796875,-0.1480541080236435,0.6748335361480713,0.08590039610862732
1705467144260013300,5.691013427734375,-0.188370019197464,0.5557183027267456,0.1946312040090561
1705467144278630700,5.709630615234375,-0.20669543743133545,0.402395635843277,0.2984752357006073
1705467144297246500,5.72824658203125,-0.20852798223495483,0.2283041626214981,0.29175591468811035
1705467144315863800,5.74686376953125,-0.19692188501358032,0.12018419802188873,0.22822780907154083
1705467144334479600,5.765479736328125,-0.1468324065208435,0.010842538438737392,0.09933903813362122
1705467144353097000,5.784096923828125,-0.07291989028453827,-0.07467607408761978,-0.04115583375096321
1705467144371713000,5.802713134765625,-0.02710634656250477,-0.13270656764507294,-0.09063446521759033
1705467144390330400,5.821330322265625,-0.02283041551709175,-0.08872556686401367,-0.02832804247736931
1705467144408946200,5.8399462890625,-0.039323292672634125,-0.025197450071573257,0.05719057470560074
1705467144427563500,5.8585634765625,-0.05154023692011833,-0.0459662564098835,0.0749051421880722
1705467144446179300,5.877179443359375,-0.06375718116760254,-0.08689302206039429,0.048638712614774704
1705467144464797000,5.895796875,-0.0680331140756607,-0.15286453068256378,0.01382041908800602
1705467144483412700,5.914412841796875,-0.060092099010944366,-0.19928891956806183,-0.02710634656250477
1705467144502030000,5.933030029296875,-0.053983625024557114,-0.12904147803783417,-0.006337540224194527
1705467144520646000,5.95164599609375,-0.03749075159430504,0.0010689827613532543,-0.02710634656250477
1705467144539263500,5.970263427734375,0.019928891211748123,-0.004428642801940441,-0.07963921129703522
1705467144557879300,5.98887939453125,0.04741701856255531,-0.0325276181101799,-0.07047650218009949
1705467144576496600,6.00749658203125,0.05596888065338135,-0.09483403712511063,-0.03871244564652443
1705467144595112400,6.026112548828125,0.04375193640589714,-0.14003673195838928,-0.02832804247736931
1705467144613730000,6.04472998046875,0.01382041908800602,-0.125987246632576,-0.007559234742075205
1705467144632345900,6.063345947265625,0.005879404954612255,-0.11560284346342087,-0.0008399150101467967
1705467144650963200,6.081963134765625,0.004657710436731577,-0.08933641016483307,-0.009391776286065578
1705467144669579300,6.100579345703125,0.011987877078354359,-0.09361234307289124,-0.03199312463402748
1705467144688196600,6.119196533203125,0.009544488042593002,-0.08689302206039429,-0.027717193588614464
1705467144706812400,6.1378125,0.005879404954612255,-0.058183200657367706,-0.0008399150101467967
1705467144725429800,6.1564296875,0.0034360159188508987,-0.05268557742238045,0.00038177953683771193
1705467144744045800,6.1750458984375,0.029091600328683853,-0.11926792562007904,-0.015500249341130257
1705467144762663200,6.1936630859375,0.07795938104391098,-0.2017323076725006,-0.04787515476346016
1705467144781279000,6.212279052734375,0.1495048701763153,-0.2292204350233078,-0.10346225649118423
1705467144799896600,6.230896484375,0.21975229680538177,-0.19379130005836487,-0.17554223537445068
1705467144818512400,6.249512451171875,0.2148655205965042,0.05543438717722893,-0.14499986171722412
1705467144837129700,6.268129638671875,0.07857023179531097,0.6088619828224182,-0.007559234742075205
1705467144855745800,6.286745849609375,0.039476003497838974,0.9106205701828003,0.033978380262851715
1705467144874363100,6.305363037109375,0.007101099472492933,0.9576557874679565,0.009544488042593002
1705467144892979000,6.32397900390625,-0.01916533336043358,0.8159392476081848,-0.08941277116537094
1705467144911596500,6.342596435546875,-0.009391776286065578,0.45615020394325256,-0.14316733181476593
1705467144930212400,6.36121240234375,0.03764346241950989,0.1391204595565796,-0.06131379306316376
1705467144948830000,6.379829833984375,0.06879667192697525,0.10979979485273361,0.04130854457616806
1705467144967445800,6.39844580078125,0.04741701856255531,0.111632339656353,0.08284615725278854
1705467144986063000,6.41706298828125,0.024815669283270836,0.08780929446220398,0.09506310522556305
1705467145004679200,6.43567919921875,0.03703261539340019,0.06948387622833252,0.1286597102880478
1705467145023296500,6.454296630859375,0.0022143214009702206,0.14706148207187653,0.09506310522556305
1705467145041912600,6.47291259765625,0.09200886636972427,-0.22189027070999146,-0.159660205245018
1705467145060530000,6.491530029296875,0.10063708573579788,-0.3599417507648468,-0.3209238648414612
1705467145079146000,6.51014599609375,0.06757497787475586,-0.24632415175437927,-0.17676392197608948
1705467145097763300,6.528763427734375,-0.008780929259955883,-0.00992626789957285,0.08040276914834976
1705467145116379100,6.547379150390625,-0.060092099010944366,0.06887302547693253,0.1414874941110611
1705467145134996700,6.565996826171875,-0.07902836054563522,0.07009471952915192,0.07246175408363342
1705467145153612500,6.584612548828125,0.018096350133419037,-0.12720894813537598,-0.09124530851840973
1705467145172230100,6.603230224609375,0.07979192584753036,-0.279920756816864,-0.15843850374221802
1705467145190846000,6.621845947265625,0.08956547826528549,-0.30313295125961304,-0.03443651273846626
1705467145209463600,6.640463623046875,0.053525492548942566,-0.21089501678943634,0.10972344130277634
1705467145228079400,6.659079345703125,0.021150587126612663,-0.12110047042369843,0.1787491738796234
1705467145246697000,6.677697021484375,0.011987877078354359,-0.1516428291797638,0.1915769726037979
1705467145265312800,6.696312744140625,0.01382041908800602,-0.13331741094589233,0.17508409917354584
1705467145283930400,6.714930419921875,0.02176143415272236,-0.058183200657367706,0.14820681512355804
1705467145302546200,6.733546142578125,0.010766183026134968,-0.016034740954637527,0.11766445636749268
1705467145321163800,6.752163818359375,0.008933641016483307,-0.028251685202121735,0.07124006003141403
1705467145339779600,6.770779541015625,0.023593975231051445,-0.06184828653931618,0.011987877078354359
1705467145358397200,6.789397216796875,0.05169294774532318,-0.09544488787651062,-0.02283041551709175
1705467145377013000,6.808012939453125,0.06879667192697525,-0.08139539510011673,-0.009391776286065578
1705467145395630600,6.826630615234375,0.059023115783929825,-0.001985253533348441,0.02542651630938053
1705467145414246400,6.845246337890625,0.04741701856255531,0.03649812191724777,0.029091600328683853
1705467145432864000,6.863864013671875,0.04375193640589714,0.026724567636847496,-0.0130568603053689
1705467145451480000,6.88247998046875,0.04375193640589714,-0.036192700266838074,-0.05215108394622803
1705467145470097400,6.901097412109375,0.053525492548942566,-0.1253764033317566,-0.04909684881567955
1705467145488713500,6.91971337890625,0.05596888065338135,-0.14125843346118927,-0.01122431829571724
1705467145507330800,6.938330810546875,0.04680617153644562,-0.08200624585151672,0.05963396281003952
1705467145525947000,6.95694677734375,0.039476003497838974,-0.039857782423496246,0.10300412029027939
1705467145544564500,6.975564453125,0.049860406666994095,-0.045355409383773804,0.06085565686225891
1705467145563180300,6.99418017578125,0.06146650388836861,-0.12354385852813721,-0.008170082233846188
1705467145581798000,7.0127978515625,0.06146650388836861,-0.18340688943862915,-0.041766680777072906
1705467145600413700,7.03141357421875,0.04008685052394867,-0.13392825424671173,-0.019776180386543274
1705467145619031300,7.05003125,0.01626380905508995,-0.07040014863014221,0.010155336000025272
1705467145637647000,7.068647216796875,0.008933641016483307,-0.030695075169205666,0.018707197159528732
1705467145656264700,7.0872646484375,0.01626380905508995,-0.04718795046210289,0.012598725035786629
1705467145674880800,7.105880859375,0.033978380262851715,-0.09239064902067184,-0.0008399150101467967
1705467145693498000,7.124498046875,0.03764346241950989,-0.12781979143619537,-0.027717193588614464
1705467145712114200,7.1431142578125,0.023593975231051445,-0.12659808993339539,-0.05031854286789894
1705467145730731800,7.161731689453125,0.004657710436731577,-0.056961506605148315,-0.03626905754208565
1705467145749347600,7.18034765625,-0.016111096367239952,0.021837789565324783,0.00038177953683771193
1705467145767965200,7.198965087890625,-0.016111096367239952,0.005344913341104984,0.007711946498602629
1705467145786581200,7.217581298828125,-0.013667707331478596,-0.03436015918850899,0.014431266114115715
1705467145805198800,7.23619873046875,-0.012446013279259205,-0.0459662564098835,0.026037365198135376
1705467145823814700,7.254814697265625,-0.0032833039294928312,-0.049020491540431976,0.019928891211748123
1705467145842432300,7.273432373046875,-0.0008399150101467967,-0.023975754156708717,0.007101099472492933
1705467145861048300,7.29204833984375,-0.005726693198084831,0.013285927474498749,0.0028251686599105597
1705467145879665700,7.310665771484375,-0.009391776286065578,0.021226942539215088,0.004657710436731577
1705467145898281700,7.32928173828125,-0.013667707331478596,-0.011147962883114815,0.009544488042593002
1705467145916899300,7.3478994140625,-0.019776180386543274,-0.039857782423496246,0.026037365198135376
1705467145935515400,7.366515380859375,-0.025273805484175682,-0.03130592033267021,0.03214583545923233
1705467145954132700,7.3851328125,-0.020997874438762665,-0.03130592033267021,0.018707197159528732
1705467145972748800,7.403748779296875,-0.016721943393349648,-0.00992626789957285,0.013209572061896324
1705467145991366400,7.422366455078125,-0.02160872146487236,0.019394399598240852,0.010766183026134968
1705467146009982200,7.440982177734375,-0.019776180386543274,0.008399149402976036,-0.015500249341130257
1705467146028599800,7.459599853515625,-0.011835165321826935,-0.023364907130599022,-0.03749075159430504
1705467146047215900,7.4782158203125,-0.014889402315020561,-0.013591351918876171,-0.022219568490982056
1705467146065833500,7.49683349609375,-0.016111096367239952,0.009009997360408306,-0.008170082233846188
1705467146084449500,7.515449462890625,-0.015500249341130257,0.03771981969475746,-0.0038941511884331703
1705467146103067000,7.53406689453125,-0.006337540224194527,0.04688252881169319,-0.026495499536395073
1705467146121683000,7.552682861328125,0.0016034740256145597,0.029167955741286278,-0.04604261368513107
1705467146140300500,7.571300537109375,-0.0014507622690871358,0.0022906772792339325,-0.03077143058180809
1705467146158916600,7.58991650390625,-0.013667707331478596,0.0065666078589856625,0.005879404954612255
1705467146177534200,7.6085341796875,-0.020997874438762665,0.0035123717971146107,0.011377030052244663
1705467146196150300,7.627150390625,-0.02710634656250477,0.02244863659143448,0.033978380262851715
1705467146214767600,7.645767578125,-0.030160583555698395,0.06581879407167435,0.049860406666994095
1705467146233383700,7.6643837890625,-0.03199312463402748,0.07742489129304886,0.041919391602277756
1705467146252001300,7.683001220703125,0.013209572061896324,-0.04963133856654167,-0.03626905754208565
1705467146270617300,7.701617431640625,0.019318044185638428,-0.10827267915010452,-0.05154023692011833
1705467146289235000,7.72023486328125,-0.002672456670552492,0.012675080448389053,-0.020997874438762665
1705467146307850800,7.738850830078125,-0.01916533336043358,0.05421269312500954,-0.04543176665902138
1705467146326468400,7.75746826171875,-0.016721943393349648,0.0328330397605896,-0.058870404958724976
1705467146345084400,7.77608447265625,-0.016111096367239952,0.0029015245381742716,-0.027717193588614464
1705467146363702000,7.794701904296875,-0.022219568490982056,0.01695101149380207,0.03214583545923233
1705467146382318000,7.813318115234375,-0.016111096367239952,0.02244863659143448,0.027869906276464462
1705467146400935700,7.831935791015625,0.0022143214009702206,-0.010537114925682545,-0.020997874438762665
1705467146419551700,7.8505517578125,0.019318044185638428,-0.045355409383773804,-0.05215108394622803
1705467146438169300,7.86916943359375,0.018096350133419037,-0.06490252166986465,-0.026495499536395073
1705467146456785400,7.887785400390625,0.010155336000025272,-0.039857782423496246,0.02298312820494175
1705467146475402800,7.90640283203125,-0.002061609411612153,-0.0038177953101694584,0.040697697550058365
1705467146494018800,7.925018798828125,-0.011835165321826935,0.0010689827613532543,0.032756682485342026
1705467146512636400,7.943636474609375,-0.017332790419459343,-0.0325276181101799,0.01626380905508995
1705467146531252500,7.96225244140625,-0.026495499536395073,-0.02214321307837963,0.02420482225716114
1705467146549870000,7.9808701171875,-0.032603971660137177,0.0004581354442052543,0.04130854457616806
1705467146568486100,7.999486083984375,-0.03443651273846626,0.031000498682260513,0.0364217683672905
1705467146587103700,8.018103759765625,-0.02710634656250477,0.04688252881169319,0.0034360159188508987
1705467146605719800,8.0367197265625,-0.01122431829571724,0.007177455350756645,-0.02038702741265297
1705467146624337400,8.05533740234375,-0.007559234742075205,-0.007482878863811493,-0.016111096367239952
1705467146642953500,8.073953369140625,-0.005726693198084831,-0.009315420873463154,-0.01794363744556904
1705467146661571000,8.092571044921876,-0.007559234742075205,-0.0007635590736754239,-0.016721943393349648
1705467146680187100,8.111187255859376,-0.002061609411612153,-0.001374406274408102,-0.016721943393349648
1705467146698804700,8.1298046875,0.005268557462841272,0.0016798300202935934,-0.016111096367239952
1705467146717420800,8.1484208984375,0.012598725035786629,-0.005650337319821119,-0.013667707331478596
1705467146736038400,8.167038330078125,0.010155336000025272,0.004123218823224306,-0.005726693198084831
1705467146754654500,8.185654541015625,0.007101099472492933,-0.0050394898280501366,-0.009391776286065578
1705467146773272000,8.20427197265625,0.0009926267666742206,-0.005650337319821119,0.004657710436731577
1705467146791888100,8.22288818359375,-0.0038941511884331703,-0.00259610079228878,0.01382041908800602
1705467146810505700,8.241505615234376,-0.0032833039294928312,0.004734066314995289,0.018096350133419037
1705467146829121800,8.260121826171876,-0.002061609411612153,0.025502873584628105,0.007711946498602629
1705467146847739400,8.278739501953124,0.008322793990373611,0.007788302376866341,-0.005726693198084831
1705467146866355500,8.29735546875,0.018096350133419037,-0.016034740954637527,-0.0014507622690871358
1705467146884973000,8.31597314453125,0.012598725035786629,-0.008704573847353458,0.023593975231051445
1705467146903589000,8.334589111328125,-0.0014507622690871358,0.012064233422279358,0.04008685052394867
1705467146922206700,8.353206787109375,-0.006948387715965509,0.013896775431931019,0.02420482225716114
1705467146940822800,8.37182275390625,-0.006948387715965509,0.023059483617544174,-0.005726693198084831
1705467146959440400,8.3904404296875,-0.0051158457063138485,0.029167955741286278,-0.01916533336043358
1705467146978056400,8.409056396484376,-0.006337540224194527,0.021226942539215088,-0.00022906772210262716
1705467146996674000,8.427674072265624,0.0009926267666742206,0.0065666078589856625,0.022372281178832054
1705467147015290400,8.446290283203124,0.008933641016483307,-0.014813045971095562,0.023593975231051445
1705467147033908000,8.464907958984375,0.018096350133419037,-0.02886253222823143,0.004046862944960594
1705467147052524000,8.48352392578125,0.015652960166335106,-0.020310672000050545,-0.010002624243497849
1705467147071141600,8.5021416015625,0.0064902519807219505,0.007788302376866341,-0.005726693198084831
1705467147089757700,8.5207578125,-0.004504998680204153,0.027946261689066887,0.011987877078354359
1705467147108375300,8.539375244140626,-0.013667707331478596,0.03955236077308655,0.03092414326965809
1705467147126991400,8.557991455078126,-0.011835165321826935,0.033443886786699295,0.027259059250354767
1705467147145609000,8.57660888671875,-0.002672456670552492,0.011453386396169662,0.004657710436731577
1705467147164225000,8.59522509765625,0.007101099472492933,-0.014202198944985867,-0.008170082233846188
1705467147182843000,8.6138427734375,0.010766183026134968,-0.020310672000050545,-0.00022906772210262716
1705467147201459000,8.632458984375,0.00038177953683771193,-0.004428642801940441,0.023593975231051445
1705467147220076500,8.65107666015625,-0.010002624243497849,0.005344913341104984,0.033978380262851715
1705467147238692600,8.669692626953125,-0.012446013279259205,-0.022754060104489326,0.02542651630938053
1705467147257310200,8.688310302734376,-0.008780929259955883,-0.04169032722711563,0.03214583545923233
1705467147275926300,8.70692626953125,-0.0038941511884331703,-0.04230117425322533,0.05657972767949104
1705467147294544000,8.7255439453125,0.011377030052244663,-0.072843536734581,0.06452073901891708
1705467147313160200,8.74416015625,0.02542651630938053,-0.09605573117733002,0.048638712614774704
1705467147331777800,8.76277783203125,0.024815669283270836,-0.07773031294345856,0.027259059250354767
1705467147350393900,8.781393798828125,0.015652960166335106,-0.04840964451432228,0.015652960166335106
1705467147369011500,8.800011474609375,0.004657710436731577,-0.011147962883114815,0.016874656081199646
1705467147387627500,8.81862744140625,-0.009391776286065578,0.021226942539215088,0.02053973823785782
1705467147406245400,8.837245361328126,-0.0130568603053689,0.018783552572131157,0.019318044185638428
1705467147424861400,8.855861328125,-0.010613471269607544,0.005344913341104984,0.03336753323674202
1705467147443479000,8.87447900390625,-0.010002624243497849,-0.012980503961443901,0.0755159929394722
1705467147462095000,8.89309521484375,-0.011835165321826935,-0.01969982497394085,0.11949699372053146
1705467147480712700,8.911712646484375,-0.009391776286065578,-0.037414394319057465,0.1555369794368744
1705467147499329000,8.9303291015625,-0.002672456670552492,-0.08200624585151672,0.19524206221103668
1705467147517946600,8.948946533203125,0.014431266114115715,-0.19745637476444244,0.2196759432554245
1705467147536562700,8.967562744140626,0.01382041908800602,-0.21822518110275269,0.20806984603405
1705467147555180500,8.9861806640625,0.015042114071547985,-0.20234315097332,0.1689756214618683
1705467147573796600,9.004796630859374,0.019318044185638428,-0.1650814712047577,0.13171394169330597
1705467147592414200,9.023414306640625,0.015042114071547985,-0.09972081333398819,0.09872818738222122
1705467147611030300,9.0420302734375,0.011987877078354359,-0.05207473039627075,0.07062921673059464
1705467147629648100,9.060648193359375,0.008933641016483307,-0.03497100621461868,0.05535803362727165
1705467147648264200,9.07926416015625,0.007101099472492933,-0.031916771084070206,0.060244809836149216
1705467147666881800,9.0978818359375,0.009544488042593002,-0.025197450071573257,0.06574243307113647
1705467147685498000,9.116498046875,0.012598725035786629,-0.023364907130599022,0.06329904496669769
1705467147704115700,9.13511572265625,0.015652960166335106,-0.04840964451432228,0.05719057470560074
1705467147722731800,9.153731689453124,0.010155336000025272,-0.06368082761764526,0.08223531395196915
1705467147741349400,9.172349365234375,-0.002672456670552492,-0.06673506647348404,0.12255123257637024
1705467147759965700,9.190965576171875,-0.014278554357588291,-0.07773031294345856,0.1420983374118805
1705467147778583300,9.209583251953125,-0.01916533336043358,-0.09361234307289124,0.1414874941110611
1705467147797199400,9.228199462890625,-0.02283041551709175,-0.10277505218982697,0.15065020322799683
1705467147815817200,9.246817138671876,-0.01122431829571724,-0.12843063473701477,0.15981291234493256
1705467147834433300,9.265433349609374,0.005268557462841272,-0.150421142578125,0.15126104652881622
1705467147853051000,9.28405078125,0.015042114071547985,-0.14003673195838928,0.14820681512355804
1705467147871667200,9.302667236328125,0.007101099472492933,-0.09727742522954941,0.1689756214618683
1705467147890284800,9.321284912109375,-0.01122431829571724,-0.04413371533155441,0.18669019639492035
1705467147908901000,9.339901123046875,-0.025273805484175682,-0.0007635590736754239,0.1787491738796234
1705467147927518700,9.358518798828126,-0.0295497365295887,-0.0050394898280501366,0.1659213900566101
1705467147946134800,9.377134765625,-0.025273805484175682,-0.04107947647571564,0.16103461384773254
1705467147964752400,9.39575244140625,-0.020997874438762665,-0.06001574173569679,0.17141900956630707
1705467147983368700,9.41436865234375,-0.02038702741265297,-0.0331384651362896,0.1683647781610489
1705467148001986600,9.432986572265625,-0.01916533336043358,0.007788302376866341,0.1677539348602295
1705467148020602600,9.4516025390625,-0.02038702741265297,0.03405473381280899,0.17202985286712646
1705467148039220200,9.47022021484375,-0.024662958458065987,0.060932014137506485,0.18974442780017853
1705467148057836500,9.48883642578125,-0.030160583555698395,0.08719844371080399,0.22761696577072144
1705467148076454100,9.5074541015625,-0.026495499536395073,0.07620319724082947,0.25449424982070923
1705467148095070500,9.526070556640626,-0.023441264405846596,0.04810422286391258,0.26548948884010315
1705467148113688000,9.54468798828125,-0.026495499536395073,0.0713164210319519,0.28137150406837463
1705467148132304400,9.563304443359375,-0.039323292672634125,0.1360662281513214,0.30580541491508484
1705467148150922000,9.581921875,-0.0552053228020668,0.2044811248779297,0.30397287011146545
1705467148169538000,9.6005380859375,-0.0552053228020668,0.23502348363399506,0.2825932204723358
1705467148188156000,9.619156005859375,-0.06497887521982193,0.27289602160453796,0.2825932204723358
1705467148206772000,9.63777197265625,-0.06742226332426071,0.2808370292186737,0.27770644426345825
1705467148225389800,9.656389892578124,-0.07719582319259644,0.27411770820617676,0.26610034704208374
1705467148244006000,9.675005859375,-0.0955212414264679,0.2698417901992798,0.2819823622703552
1705467148262623700,9.693623779296875,-0.09674293547868729,0.2539597451686859,0.3003077805042267
1705467148281239800,9.71223974609375,-0.08635853230953217,0.22586077451705933,0.336347758769989
1705467148299857700,9.730857666015625,-0.07108735293149948,0.19409671425819397,0.38277217745780945
1705467148318473700,9.7494736328125,-0.044820915907621384,0.14522893726825714,0.3992650508880615
1705467148337091600,9.768091552734376,-0.0032833039294928312,0.10613471269607544,0.3638359010219574
1705467148355707600,9.786707763671876,0.033978380262851715,0.07437065243721008,0.30702710151672363
1705467148374325500,9.805325439453124,0.05474718660116196,0.03955236077308655,0.2581593096256256
1705467148392941600,9.823941650390625,0.06329904496669769,0.0016798300202935934,0.24044474959373474
1705467148411559400,9.842559326171875,0.06757497787475586,-0.036192700266838074,0.2441098392009735
1705467148430175700,9.86117578125,0.07429429888725281,-0.07773031294345856,0.25143998861312866
1705467148448793300,9.87979345703125,0.06513158977031708,-0.09177979826927185,0.24899661540985107
1705467148467409700,9.89840966796875,0.02420482225716114,-0.01969982497394085,0.24899661540985107
1705467148486027300,9.91702734375,-0.014889402315020561,0.07498150318861008,0.2453315258026123
1705467148504643600,9.9356435546875,-0.048486001789569855,0.15500248968601227,0.24105559289455414
1705467148523261200,9.95426123046875,-0.058870404958724976,0.1898207813501358,0.22944949567317963
1705467148541877500,9.97287744140625,-0.06253548711538315,0.16660858690738678,0.22761696577072144
1705467148560495400,9.991495361328125,-0.05337277799844742,0.13545538485050201,0.21112407743930817
1705467148579111400,10.010111328125,-0.04604261368513107,0.10735640674829483,0.2050156146287918
1705467148597729300,10.028729248046876,-0.048486001789569855,0.11285403370857239,0.22822780907154083
1705467148616345300,10.047345458984376,-0.05703786388039589,0.13301199674606323,0.2465532273054123
1705467148634963200,10.065963134765624,-0.058870404958724976,0.1360662281513214,0.2477749139070511
1705467148653579500,10.08457958984375,-0.050929389894008636,0.11407572776079178,0.23433628678321838
1705467148672197000,10.103197021484375,-0.032603971660137177,0.07314895838499069,0.18791188299655914
1705467148690813400,10.1218134765625,-0.013667707331478596,0.04932591691613197,0.14881765842437744
1705467148709431000,10.14043115234375,-0.01122431829571724,0.03771981969475746,0.14820681512355804
1705467148728047400,10.15904736328125,-0.02038702741265297,0.04871506989002228,0.17569494247436523
1705467148746665200,10.177665283203124,-0.02283041551709175,0.043828289955854416,0.18852274119853973
1705467148765281300,10.19628125,-0.023441264405846596,0.041384901851415634,0.2074590027332306
1705467148783899100,10.214899169921875,-0.02038702741265297,0.04504998400807381,0.2208976447582245
1705467148802515500,10.233515380859375,-0.010613471269607544,0.06154286116361618,0.21784339845180511
1705467148821133000,10.252133056640625,-0.006948387715965509,0.07620319724082947,0.21295662224292755
1705467148839749400,10.270749267578125,-0.009391776286065578,0.07620319724082947,0.2062373012304306
1705467148858367200,10.2893671875,-0.0032833039294928312,0.04504998400807381,0.18546849489212036
1705467148876983600,10.307983642578124,-0.0008399150101467967,0.023059483617544174,0.1805817186832428
1705467148895601200,10.32660107421875,0.0009926267666742206,0.032222192734479904,0.20135052502155304
1705467148914217500,10.345217529296875,-0.010613471269607544,0.051769305020570755,0.2441098392009735
1705467148932835300,10.36383544921875,-0.007559234742075205,0.0975828468799591,0.2734304964542389
1705467148951451400,10.382451416015625,-0.013667707331478596,0.10918894410133362,0.2697654068470001
1705467148970069200,10.4010693359375,-0.02038702741265297,0.111632339656353,0.2581593096256256
1705467148988685600,10.419685546875,-0.02832804247736931,0.08780929446220398,0.27892813086509705
1705467149007303400,10.438303466796874,-0.044820915907621384,0.07070557028055191,0.3137464225292206
1705467149025919500,10.45691943359375,-0.047264307737350464,0.0725381150841713,0.3351260721683502
1705467149044537300,10.475537353515625,-0.032603971660137177,0.06459710001945496,0.33207184076309204
1705467149063153700,10.494153564453125,-0.014278554357588291,0.07314895838499069,0.31985488533973694
1705467149081771500,10.512771484375,-0.014889402315020561,0.06337540596723557,0.30214032530784607
1705467149100387600,10.5313876953125,-0.002061609411612153,0.02367033064365387,0.26243525743484497
1705467149119005400,10.55000537109375,0.02420482225716114,-0.020310672000050545,0.23677967488765717
1705467149137621800,10.568621826171874,0.03764346241950989,-0.03680354729294777,0.2202867865562439
1705467149156239600,10.587239501953125,0.031534988433122635,-0.010537114925682545,0.2331145852804184
1705467149174856000,10.60585595703125,0.012598725035786629,0.0584886260330677,0.259991854429245
1705467149193473800,10.624473876953125,-0.006337540224194527,0.10918894410133362,0.2740413546562195
1705467149212089900,10.64308984375,-0.002672456670552492,0.09269607067108154,0.2722088098526001
1705467149230707700,10.661707763671876,0.014431266114115715,0.03771981969475746,0.25205084681510925
1705467149249324000,10.680323974609376,0.0358109213411808,-0.02214321307837963,0.20929154753684998
1705467149267942000,10.69894189453125,0.04741701856255531,-0.019088976085186005,0.21112407743930817
1705467149286558200,10.71755810546875,0.015042114071547985,0.05726693198084831,0.2887016832828522
1705467149305175800,10.73617578125,-0.016111096367239952,0.09575030952692032,0.3357369303703308
1705467149323792100,10.754792236328125,-0.022219568490982056,0.07803573459386826,0.3106921911239624
1705467149342410000,10.773409912109376,-0.0008399150101467967,0.0029015245381742716,0.232503741979599
1705467149361026300,10.7920263671875,0.029091600328683853,-0.051463883370161057,0.17202985286712646
1705467149379644200,10.81064404296875,0.04375193640589714,-0.036192700266838074,0.1677539348602295
1705467149398260500,10.829260498046875,0.04680617153644562,-0.01847812905907631,0.17386239767074585
1705467149416878300,10.84787841796875,0.04802786558866501,-0.007482878863811493,0.18363595008850098
1705467149435494700,10.86649462890625,0.04558447748422623,-0.016034740954637527,0.18791188299655914
1705467149454112500,10.885112548828126,0.04802786558866501,-0.037414394319057465,0.17813833057880402
1705467149472728800,10.903728759765626,0.048638712614774704,-0.037414394319057465,0.18302510678768158
1705467149491346400,10.922346435546874,0.03764346241950989,-0.004428642801940441,0.20073968172073364
1705467149509963000,10.940962890625,0.016874656081199646,0.02733541466295719,0.21723255515098572
1705467149528580600,10.95958056640625,0.0016034740256145597,0.03649812191724777,0.2208976447582245
1705467149547197000,10.978197021484375,-0.005726693198084831,0.029167955741286278,0.20868068933486938
1705467149565814800,10.996814697265625,-0.0032833039294928312,0.0261137206107378,0.179360032081604
1705467149584431000,11.01543115234375,0.0022143214009702206,0.043828289955854416,0.16103461384773254
1705467149603049000,11.034049072265624,-0.00022906772210262716,0.059710320085287094,0.17386239767074585
1705467149621665300,11.052665283203124,0.0034360159188508987,0.0590994730591774,0.18852274119853973
1705467149640283100,11.071283203125,0.014431266114115715,0.0462716780602932,0.1671430766582489
1705467149658899500,11.0898994140625,0.03092414326965809,0.04199574887752533,0.12499462068080902
1705467149677517300,11.108517333984375,0.04130854457616806,0.025502873584628105,0.1005607321858406
1705467149696133600,11.127133544921875,0.044362783432006836,0.009620844386518002,0.11705360561609268
1705467149714751500,11.14575146484375,0.04008685052394867,-0.01969982497394085,0.13476817309856415
1705467149733367800,11.164367919921874,0.06329904496669769,-0.08017370104789734,0.09750649333000183
1705467149751985700,11.182985595703125,0.08956547826528549,-0.08261708915233612,0.07001836597919464
1705467149770602000,11.20160205078125,0.07307260483503342,-0.03558185324072838,0.09994988143444061
1705467149789219800,11.2202197265625,0.04680617153644562,0.012675080448389053,0.13843326270580292
1705467149807836400,11.23883642578125,0.02053973823785782,0.031000498682260513,0.15798036754131317
1705467149826454000,11.2574541015625,0.008933641016483307,0.01572931744158268,0.16408884525299072
1705467149845070300,11.2760703125,0.0022143214009702206,-0.00015271181473508477,0.14576342701911926
1705467149863688400,11.2946884765625,-0.00022906772210262716,0.016340164467692375,0.12438376992940903
1705467149882304800,11.3133046875,-0.0032833039294928312,0.05665608495473862,0.10605835169553757
1705467149900922600,11.331922607421875,-0.0014507622690871358,0.07620319724082947,0.10666920244693756
1705467149919539000,11.3505390625,-0.0014507622690871358,0.0719272643327713,0.11888615041971207
1705467149938156800,11.36915673828125,0.008322793990373611,0.03955236077308655,0.11216682940721512
1705467149956773000,11.387773193359376,0.02542651630938053,0.0016798300202935934,0.08467870205640793
1705467149975391000,11.406390869140624,0.03092414326965809,0.0010689827613532543,0.06085565686225891
1705467149994007300,11.42500732421875,0.022372281178832054,0.025502873584628105,0.05596888065338135
1705467150012625200,11.443625244140625,0.009544488042593002,0.034665580838918686,0.044362783432006836
1705467150031241700,11.46224169921875,-0.0014507622690871358,0.04504998400807381,0.02420482225716114
1705467150049859600,11.480859619140626,-0.010613471269607544,0.04199574887752533,0.010766183026134968
1705467150068476000,11.499475830078126,-0.017332790419459343,0.04016320779919624,0.011377030052244663
1705467150087093800,11.51809375,-0.024662958458065987,0.0456608310341835,0.03214583545923233
1705467150105710000,11.5367099609375,-0.02405211143195629,0.04321744292974472,0.05291464552283287
1705467150124328000,11.555327880859375,-0.022219568490982056,0.02733541466295719,0.05047125369310379
1705467150142944500,11.573944580078125,-0.01122431829571724,0.005955760832875967,0.02176143415272236
1705467150161562400,11.592562255859375,-0.009391776286065578,0.007177455350756645,0.007711946498602629
1705467150180178700,11.6111787109375,-0.014278554357588291,0.02244863659143448,0.011377030052244663
1705467150198796500,11.629796630859374,-0.024662958458065987,0.028557108715176582,0.031534988433122635
1705467150217412900,11.648412841796874,-0.023441264405846596,0.005955760832875967,0.02542651630938053
1705467150236031000,11.667031005859375,-0.010613471269607544,-0.025808297097682953,-0.027717193588614464
1705467150254647300,11.685647216796875,0.00038177953683771193,-0.025808297097682953,-0.050929389894008636
1705467150273265200,11.70426513671875,0.005268557462841272,-0.028251685202121735,-0.04604261368513107
1705467150291881500,11.722881591796876,0.010155336000025272,-0.015423892997205257,-0.009391776286065578
1705467150310499600,11.74149951171875,0.007711946498602629,-0.008093725889921188,0.027869906276464462
1705467150329116000,11.760115966796874,0.01382041908800602,-0.020310672000050545,0.032756682485342026
1705467150347733800,11.778733642578125,0.01748550310730934,-0.025197450071573257,0.01626380905508995
1705467150366350000,11.79735009765625,0.016874656081199646,-0.031916771084070206,-0.0130568603053689
1705467150384968200,11.81596826171875,0.010155336000025272,-0.022754060104489326,-0.01794363744556904
1705467150403584500,11.83458447265625,0.004657710436731577,-0.024586603045463562,-0.01794363744556904
1705467150422202400,11.853202392578124,-0.0038941511884331703,-0.03558185324072838,-0.02160872146487236
1705467150440818700,11.871818603515624,-0.02038702741265297,-0.013591351918876171,-0.031382277607917786
1705467150459436800,11.890436767578125,-0.0295497365295887,0.004123218823224306,-0.06253548711538315
1705467150478053000,11.90905322265625,-0.03565821051597595,0.04504998400807381,-0.14133478701114655
1705467150496671000,11.9276708984375,-0.017332790419459343,0.05665608495473862,-0.2549523711204529
1705467150515287600,11.94628759765625,-0.0032833039294928312,0.0847550556063652,-0.3594072461128235
1705467150533905400,11.964905517578124,0.04558447748422623,-0.01847812905907631,-0.475468248128891
1705467150552521700,11.983521728515624,0.06818582862615585,-0.11682453751564026,-0.5554892420768738
1705467150571139800,12.002139892578125,0.05230379477143288,-0.12659808993339539,-0.5658736228942871
1705467150589756200,12.020756103515625,0.019318044185638428,-0.08200624585151672,-0.5548783540725708
1705467150608374000,12.0393740234375,-0.0032833039294928312,-0.02764083817601204,-0.5512133240699768
1705467150626990600,12.057990478515626,-0.023441264405846596,-0.01847812905907631,-0.5780905485153198
1705467150645608400,12.0766083984375,-0.038101598620414734,-0.0050394898280501366,-0.6947624087333679
1705467150664224800,12.095224853515624,-0.0429883748292923,-0.010537114925682545,-0.8377770185470581
1705467150682843000,12.1138427734375,-0.0552053228020668,-0.045355409383773804,-0.9263498783111572
1705467150701459200,12.132459228515625,-0.08574768155813217,-0.049020491540431976,-0.9446752667427063
1705467150720077300,12.151077392578125,-0.11567919701337814,-0.03924693539738655,-0.9196305274963379
1705467150738693600,12.169693603515626,-0.15049749612808228,-0.0587940476834774,-0.9306257963180542
1705467150757311500,12.1883115234375,-0.1462215632200241,-0.07895200699567795,-0.9825478196144104
1705467150775928000,12.206927978515624,-0.13828055560588837,-0.0984991192817688,-1.031415581703186
1705467150794546000,12.2255458984375,-0.13766969740390778,-0.15836215019226074,-1.0717315673828125
1705467150813162500,12.24416259765625,-0.12606360018253326,-0.1766875684261322,-1.091889500617981
1705467150831780400,12.2627802734375,-0.12728530168533325,-0.18035265803337097,-1.0485193729400635
1705467150850397000,12.28139697265625,-0.1217876747250557,-0.2683146595954895,-1.0149227380752563
1705467150869014800,12.300014892578124,-0.1217876747250557,-0.23471805453300476,-0.980715274810791
1705467150887631400,12.31863134765625,-0.12484190613031387,-0.12720894813537598,-0.9752176403999329
1705467150906249200,12.337249267578125,-0.10590564459562302,-0.13148486614227295,-1.0063709020614624
1705467150924865800,12.35586572265625,-0.09674293547868729,-0.16935740411281586,-0.9758284687995911
1705467150943483600,12.374483642578125,-0.09185615926980972,-0.20722992718219757,-0.9275715351104736
1705467150962100200,12.393100341796876,-0.08452598750591278,-0.22127941250801086,-0.906802773475647
1705467150980718000,12.411718017578124,-0.05825955793261528,-0.23105297982692719,-0.9031376838684082
1705467150999334700,12.430334716796875,-0.03993413969874382,-0.1913478970527649,-0.8640434741973877
1705467151017952500,12.448952392578125,-0.024662958458065987,-0.19501298666000366,-0.8004390001296997
1705467151036569000,12.467569091796875,-0.01794363744556904,-0.24754585325717926,-0.7191963195800781
1705467151055187000,12.48618701171875,-0.02832804247736931,-0.2982461750507355,-0.6422295570373535
1705467151073803500,12.504803466796876,-0.03382566571235657,-0.30435463786125183,-0.5719820857048035
1705467151092421400,12.52342138671875,-0.06070294603705406,-0.22433365881443024,-0.4608078896999359
1705467151111038000,12.542037841796875,-0.08269345015287399,-0.14492350816726685,-0.34902286529541016
1705467151129656000,12.560656005859375,-0.09857547283172607,-0.10460758954286575,-0.35207709670066833
1705467151148272400,12.5792724609375,-0.10529479384422302,-0.06306997686624527,-0.45286688208580017
1705467151166890500,12.597890380859376,-0.10895988345146179,-0.025197450071573257,-0.5102865099906921
1705467151185506800,12.6165068359375,-0.11018157750368118,0.04932591691613197,-0.4748573899269104
1705467151204125000,12.635125,-0.10957072675228119,0.09941539168357849,-0.4229353666305542
1705467151222741500,12.653741455078125,-0.0949103906750679,0.09636115282773972,-0.38811707496643066
1705467151241359400,12.672359375,-0.06436803191900253,0.017561858519911766,-0.3820086121559143
1705467151259976000,12.690975830078125,-0.02832804247736931,-0.04718795046210289,-0.35268792510032654
1705467151278593800,12.70959375,-0.01122431829571724,-0.10033166408538818,-0.26106083393096924
1705467151297210400,12.72821044921875,-0.0051158457063138485,-0.14125843346118927,-0.13217207789421082
1705467151315828500,12.746828369140625,-0.008170082233846188,-0.1516428291797638,-0.0295497365295887
1705467151334444800,12.76544482421875,-0.008170082233846188,-0.17974179983139038,0.005268557462841272
1705467151353063000,12.78406298828125,-0.0051158457063138485,-0.19440214335918427,0.007711946498602629
1705467151371679500,12.802679443359375,-0.016721943393349648,-0.13942588865756989,0.016874656081199646
1705467151390297300,12.82129736328125,-0.025884652510285378,-0.07711946964263916,0.023593975231051445
1705467151408914000,12.839913818359374,-0.032603971660137177,-0.029473381116986275,0.0034360159188508987
1705467151427532000,12.858531982421875,-0.03993413969874382,-0.005650337319821119,-0.038101598620414734
1705467151446148600,12.877148681640625,-0.041766680777072906,-0.01725643500685692,-0.08574768155813217
1705467151464766500,12.895766357421875,-0.044820915907621384,-0.00259610079228878,-0.09307785332202911
1705467151483383000,12.914383056640625,-0.040544986724853516,0.010842538438737392,-0.08452598750591278
1705467151502001200,12.933001220703124,-0.03871244564652443,0.004123218823224306,-0.07353074103593826
1705467151520617500,12.951617431640624,-0.03626905754208565,-0.009315420873463154,-0.0552053228020668
1705467151539235600,12.970235595703125,-0.03443651273846626,-0.0331384651362896,-0.044820915907621384
1705467151557852200,12.98885205078125,-0.0295497365295887,-0.05207473039627075,-0.0423775278031826
1705467151576470300,13.00747021484375,-0.02405211143195629,-0.07406523078680038,-0.03199312463402748
1705467151595086600,13.026086669921876,-0.02405211143195629,-0.06429167091846466,-0.020997874438762665
1705467151613704700,13.04470458984375,-0.022219568490982056,-0.06368082761764526,-0.02160872146487236
1705467151632321300,13.0633212890625,-0.02160872146487236,-0.047798797488212585,-0.019776180386543274
1705467151650939400,13.081939453125,-0.01916533336043358,-0.04107947647571564,-0.03504735976457596
1705467151669556000,13.100555908203125,-0.013667707331478596,-0.046577103435993195,-0.07230904698371887
1705467151688173800,13.119173828125,-0.0051158457063138485,-0.04963133856654167,-0.11629004776477814
1705467151706790400,13.137790283203126,0.004657710436731577,-0.0856713280081749,-0.16943375766277313
1705467151725408500,13.156408447265624,0.007101099472492933,-0.09483403712511063,-0.188370019197464
1705467151744025000,13.175025146484375,0.0028251686599105597,-0.06184828653931618,-0.2402920424938202
1705467151762643200,13.193643310546875,-0.007559234742075205,-0.010537114925682545,-0.3716242015361786
1705467151781259800,13.212259765625,-0.008780929259955883,0.029167955741286278,-0.5524349808692932
1705467151799877600,13.230877685546876,-0.028938889503479004,0.05482354015111923,-0.6562790274620056
1705467151818494200,13.249494140625,-0.06253548711538315,0.014507622458040714,-0.6978166103363037
1705467151837112300,13.2681123046875,-0.09796462953090668,-0.08994726091623306,-0.7112552523612976
1705467151855729000,13.28672900390625,-0.08880192041397095,-0.18401773273944855,-0.7228613495826721
1705467151874347000,13.305346923828125,-0.05154023692011833,-0.24815669655799866,-0.7222505211830139
1705467151892963600,13.323963623046875,-0.006948387715965509,-0.26098448038101196,-0.7674532532691956
1705467151911581700,13.342581787109374,0.019928891211748123,-0.2518217861652374,-0.8658760190010071
1705467151930198300,13.3611982421875,0.04558447748422623,-0.16691401600837708,-1.0020949840545654
1705467151948816100,13.379816162109375,0.04130854457616806,-0.06978929787874222,-1.134037971496582
1705467151967432700,13.3984326171875,0.041919391602277756,-0.072232685983181,-1.2452120780944824
1705467151986050800,13.41705078125,0.06696412712335587,-0.17302247881889343,-1.3514995574951172
1705467152004667400,13.43566748046875,0.07185091078281403,-0.19623468816280365,-1.4150276184082031
1705467152023285500,13.454285400390624,0.05841226875782013,-0.19501298666000366,-1.4095300436019897
1705467152041902000,13.472902099609374,0.04375193640589714,-0.18218518793582916,-1.3710466623306274
1705467152060520200,13.491520263671875,0.02053973823785782,-0.18585027754306793,-1.323400616645813
1705467152079136800,13.51013671875,0.005268557462841272,-0.20845162868499756,-1.2378820180892944
1705467152097755000,13.5287548828125,-0.016111096367239952,-0.10705098509788513,-1.0613471269607544
1705467152116371500,13.547371337890626,-0.04115583375096321,-0.06795676052570343,-0.8890882134437561
1705467152134989600,13.565989501953124,-0.04543176665902138,-0.008093725889921188,-0.8457180261611938
1705467152153606100,13.584606201171875,-0.041766680777072906,-0.0594048947095871,-0.8848122358322144
1705467152172224300,13.603224365234375,-0.025273805484175682,-0.05512896552681923,-0.9312366247177124
1705467152190840800,13.6218408203125,-0.013667707331478596,-0.07467607408761978,-0.9116895198822021
1705467152209459000,13.640458984375,0.015042114071547985,-0.03436015918850899,-0.81509929895401
1705467152228075500,13.659075439453124,0.02420482225716114,0.06032116711139679,-0.7002600431442261
1705467152246693600,13.677693603515625,0.044362783432006836,0.0590994730591774,-0.6355102062225342
1705467152265310200,13.696310302734375,0.05169294774532318,-0.0459662564098835,-0.556100070476532
1705467152283928300,13.71492822265625,0.048638712614774704,-0.011147962883114815,-0.4351523220539093
1705467152302545000,13.733544921875,0.0749051421880722,0.04932591691613197,-0.3557421863079071
1705467152321163000,13.7521630859375,0.0626882016658783,0.10979979485273361,-0.28671643137931824
1705467152339779600,13.770779541015624,0.05291464552283287,0.1104106456041336,-0.2763320207595825
1705467152358397700,13.789397705078125,0.03336753323674202,0.07864658534526825,-0.3343625068664551
1705467152377014500,13.8080146484375,-0.010613471269607544,0.03771981969475746,-0.4131618142127991
1705467152395632600,13.826632568359376,-0.04665346071124077,0.02367033064365387,-0.48402008414268494
1705467152414249200,13.845249267578126,-0.07047650218009949,0.037108972668647766,-0.5536566972732544
1705467152432867300,13.863867431640625,-0.07475243508815765,0.004734066314995289,-0.5536566972732544
1705467152451484000,13.88248388671875,-0.07353074103593826,-0.013591351918876171,-0.5322770476341248
1705467152470102000,13.90110205078125,-0.07353074103593826,-0.022754060104489326,-0.5383855104446411
1705467152488718600,13.919718505859375,-0.06131379306316376,-0.06306997686624527,-0.6086329221725464
1705467152507336700,13.938336669921876,-0.056427016854286194,-0.0856713280081749,-0.7143095135688782
1705467152525953500,13.95695361328125,-0.05337277799844742,-0.09239064902067184,-0.7668423652648926
1705467152544571600,13.975571533203125,-0.050929389894008636,-0.09177979826927185,-0.6721610426902771
1705467152563188200,13.994188232421875,-0.03443651273846626,-0.04840964451432228,-0.5139515995979309
1705467152581806300,14.012806396484375,-0.020997874438762665,0.0016798300202935934,-0.422324538230896
1705467152600423000,14.0314228515625,-0.011835165321826935,0.05726693198084831,-0.4608078896999359
1705467152619041000,14.050041015625,-0.0032833039294928312,0.05360184609889984,-0.5670953392982483
1705467152637657900,14.068657958984375,-0.020997874438762665,-0.02214321307837963,-0.60252445936203
1705467152656276000,14.08727587890625,-0.056427016854286194,-0.08078455179929733,-0.5157841444015503
1705467152674892500,14.105892578125,-0.07780666649341583,-0.12965233623981476,-0.37528929114341736
1705467152693510700,14.1245107421875,-0.0942995473742485,-0.10521844029426575,-0.212803915143013
1705467152712127500,14.14312744140625,-0.1083490327000618,-0.036192700266838074,-0.08880192041397095
1705467152730745600,14.16174560546875,-0.1456107199192047,0.10185877978801727,-0.01122431829571724
1705467152749362200,14.180362060546875,-0.09124530851840973,-0.021532366052269936,-0.031382277607917786
1705467152767980300,14.198980224609375,-0.07902836054563522,0.03588727489113808,-0.05825955793261528
1705467152786597000,14.21759716796875,-0.06497887521982193,0.08353336155414581,-0.08880192041397095
1705467152805215200,14.23621533203125,-0.041766680777072906,0.05421269312500954,-0.09918632358312607
1705467152823831800,14.254831787109374,-0.038101598620414734,0.0016798300202935934,-0.06375718116760254
1705467152842450000,14.273449951171875,-0.04115583375096321,-0.09116895496845245,0.004657710436731577
1705467152861066800,14.292066650390625,-0.05703786388039589,-0.1498102843761444,0.07857023179531097
1705467152879684900,14.310684814453126,-0.06681142002344131,-0.19195875525474548,0.06329904496669769
1705467152898301400,14.329301513671876,-0.06131379306316376,-0.2677038013935089,-0.004504998680204153
1705467152916919800,14.347919921875,-0.060092099010944366,-0.3617742955684662,-0.08452598750591278
1705467152935536400,14.366536376953125,-0.07597412914037704,-0.4546230733394623,-0.12972868978977203
1705467152954154800,14.38515478515625,-0.10224056243896484,-0.5297572612762451,-0.10590564459562302
1705467152972771300,14.403771240234375,-0.13033953309059143,-0.5175403356552124,-0.03687990456819534
1705467152991389400,14.422389404296876,-0.14499986171722412,-0.492495596408844,-0.002061609411612153
1705467153010006000,14.441006103515624,-0.13156123459339142,-0.5474718809127808,-0.038101598620414734
1705467153028624400,14.459624267578125,-0.1358371526002884,-0.5938962697982788,-0.07902836054563522
1705467153047241000,14.478240966796875,-0.1474432498216629,-0.6439857482910156,-0.09735377877950668
1705467153065859300,14.496859375,-0.16454698145389557,-0.7569924592971802,-0.07047650218009949
1705467153084476000,14.515475830078126,-0.16515782475471497,-0.9512419104576111,0.0034360159188508987
1705467153103094000,14.534093994140624,-0.1602710485458374,-1.1289983987808228,0.13049224019050598
1705467153121710800,14.5527109375,-0.15477342903614044,-1.1106730699539185,0.33085015416145325
1705467153140329000,14.571328857421875,-0.15416257083415985,-0.9481876492500305,0.49761146306991577
1705467153158945800,14.58994580078125,-0.15110833942890167,-0.7588250041007996,0.5874059796333313
1705467153177564000,14.60856396484375,-0.12911784648895264,-0.6635328531265259,0.595346987247467
1705467153196180700,14.6271806640625,-0.13705885410308838,-0.669030487537384,0.5391490459442139
1705467153214798800,14.645798828125,-0.12850698828697205,-0.6555918455123901,0.46218231320381165
1705467153233415700,14.664415771484375,-0.135226309299469,-0.5938962697982788,0.3736094534397125
1705467153252033800,14.68303369140625,-0.14377817511558533,-0.5633538961410522,0.3106921911239624
1705467153270650600,14.701650634765626,-0.15416257083415985,-0.5706840753555298,0.3003077805042267
1705467153289268700,14.720268798828124,-0.1590493619441986,-0.6238277554512024,0.35955995321273804
1705467153307885300,14.73888525390625,-0.1614927500486374,-0.6378772258758545,0.46096062660217285
1705467153326503700,14.757503662109375,-0.13828055560588837,-0.6586460471153259,0.5672480463981628
1705467153345120300,14.776120361328125,-0.1077381819486618,-0.6635328531265259,0.6643727421760559
1705467153363738600,14.794738525390626,-0.082082599401474,-0.6507050395011902,0.7315659523010254
1705467153382355200,14.813355224609374,-0.08330429345369339,-0.6342121958732605,0.7450045943260193
1705467153400973600,14.8319736328125,-0.10040801763534546,-0.6678087711334229,0.7114079594612122
1705467153419590400,14.85059033203125,-0.12239851802587509,-0.6757497787475586,0.6497124433517456
1705467153438208500,14.86920849609375,-0.12911784648895264,-0.6232169270515442,0.5904602408409119
1705467153456825300,14.887825439453126,-0.1346154659986496,-0.6531484127044678,0.5519768595695496
1705467153475443500,14.906443359375,-0.14377817511558533,-0.681858241558075,0.5422033071517944
1705467153494060300,14.925060302734375,-0.1614927500486374,-0.7136223316192627,0.5409815907478333
1705467153512678400,14.943678466796875,-0.1730988472700119,-0.7777612805366516,0.5250995755195618
1705467153531295200,14.962295166015625,-0.19264595210552216,-0.8089144825935364,0.5556419491767883
1705467153549913600,14.98091357421875,-0.1987544298171997,-0.7643226385116577,0.6448256373405457
1705467153568530200,14.9995302734375,-0.1999761164188385,-0.6390989422798157,0.7602757811546326
1705467153587148500,15.0181484375,-0.23662695288658142,-0.5584670901298523,0.831744909286499
1705467153605765000,15.03676513671875,-0.30931776762008667,-0.5981721878051758,0.7291225790977478
1705467153624383500,15.055383544921876,-0.424157053232193,-0.669030487537384,0.48539450764656067
1705467153643000300,15.074000244140626,-0.5127299427986145,-0.6806365847587585,0.23677967488765717
1705467153661618400,15.092618408203125,-0.5670953392982483,-0.6226060390472412,0.0877329409122467
1705467153680235300,15.1112353515625,-0.6422295570373535,-0.5163186192512512,0.08528954535722733
1705467153698853600,15.129853515625,-0.7271373271942139,-0.4546230733394623,0.2044047713279724
1705467153717470200,15.14847021484375,-0.7381325364112854,-0.5981721878051758,0.25266170501708984
1705467153736088600,15.167088623046874,-0.7198071479797363,-0.7527165412902832,0.21112407743930817
1705467153754705400,15.185705322265624,-0.7027034163475037,-0.7948650121688843,0.1402658075094223
1705467153773323500,15.204323486328125,-0.7039251327514648,-0.80280601978302,0.08467870205640793
1705467153791940400,15.2229404296875,-0.7277481555938721,-0.8498412370681763,0.08406785130500793
1705467153810558700,15.241558837890626,-0.759512186050415,-0.8944330811500549,0.1671430766582489
1705467153829175300,15.26017529296875,-0.6996491551399231,-0.9885035753250122,0.20318306982517242
1705467153847793700,15.278793701171875,-0.6416186690330505,-1.0605835914611816,0.13843326270580292
1705467153866410500,15.297410400390625,-0.6709393858909607,-1.0202676057815552,0.02542651630938053
1705467153885028900,15.31602880859375,-0.7375217080116272,-0.8779402375221252,-0.04909684881567955
1705467153903645400,15.3346455078125,-0.7851678133010864,-0.7227849960327148,-0.07291989028453827
1705467153922263800,15.353263916015624,-0.8053257465362549,-0.669030487537384,-0.06497887521982193
1705467153940880600,15.371880615234375,-0.7870003581047058,-0.6806365847587585,-0.07169819623231888
1705467153959499000,15.3904990234375,-0.7204179763793945,-0.7740961909294128,-0.07536327838897705
1705467153978115800,15.40911572265625,-0.6190173625946045,-0.8419002294540405,-0.008780929259955883
1705467153996734000,15.42773388671875,-0.5273902416229248,-0.7820371985435486,0.15614783763885498
1705467154015350800,15.446350830078124,-0.4088858962059021,-0.6904101371765137,0.336347758769989
1705467154033969200,15.46496923828125,-0.29771167039871216,-0.617719292640686,0.3913240134716034
1705467154052586000,15.4835859375,-0.17615307867527008,-0.705070436000824,0.26732203364372253
1705467154071204400,15.502204345703126,-0.05459447205066681,-0.9145910739898682,0.0883437842130661
1705467154089821000,15.520821044921876,0.013209572061896324,-1.1333507299423218,-0.023441264405846596
1705467154108439300,15.539439208984374,0.04130854457616806,-1.1981005668640137,-0.041766680777072906
1705467154127056100,15.55805615234375,0.05230379477143288,-1.1296093463897705,-0.026495499536395073
1705467154145674500,15.576674560546875,0.039476003497838974,-0.9701781868934631,-0.09307785332202911
1705467154164291300,15.595291259765625,-0.02283041551709175,-0.8877137899398804,-0.22868594527244568
1705467154182909700,15.61390966796875,-0.09307785332202911,-0.8596147894859314,-0.2751103341579437
1705467154201526500,15.632526611328124,-0.03626905754208565,-0.9054283499717712,-0.10712733864784241
1705467154220144600,15.65114453125,0.10369132459163666,-1.0770764350891113,0.12988139688968658
1705467154238761500,15.669761474609375,0.15866757929325104,-1.19932222366333,0.2966426908969879
1705467154257379800,15.6883798828125,0.09200886636972427,-1.190159559249878,0.334515243768692
1705467154275996700,15.70699658203125,-0.048486001789569855,-1.2097066640853882,0.3381803035736084
1705467154294615000,15.725614990234375,-0.12972868978977203,-1.2842299938201904,0.44568943977355957
1705467154313232000,15.74423193359375,-0.14133478701114655,-1.3776895999908447,0.6100073456764221
1705467154331850200,15.762850341796875,-0.13156123459339142,-1.287284255027771,0.6588751077651978
1705467154350467000,15.781467041015626,-0.11018157750368118,-1.0911259651184082,0.5415924787521362
1705467154369085400,15.80008544921875,-0.11079242080450058,-0.826018214225769,0.34306707978248596
1705467154387702300,15.818702392578125,-0.1358371526002884,-0.5493044257164001,0.15126104652881622
1705467154406320600,15.837320556640625,-0.11690089106559753,-0.2915268540382385,0.03886515647172928
1705467154424937500,15.8559375,-0.050929389894008636,-0.1516428291797638,0.029091600328683853
1705467154443555800,15.874555908203124,-0.016721943393349648,-0.11438114941120148,0.03825430944561958
1705467154462172700,15.893172607421874,-0.056427016854286194,-0.10827267915010452,0.02420482225716114
1705467154480791000,15.911791015625,-0.11567919701337814,-0.10582929104566574,0.028480753302574158
1705467154499408000,15.930407958984375,-0.1358371526002884,-0.08994726091623306,0.03886515647172928
1705467154518026200,15.949026123046876,-0.11384665966033936,-0.06673506647348404,0.0492495596408844
1705467154536643000,15.96764306640625,-0.09613208472728729,-0.13026317954063416,0.08162446320056915
1705467154555261400,15.986261474609375,-0.11262496560811996,-0.20784078538417816,0.10728005319833755
1705467154573878300,16.004878173828125,-0.11690089106559753,-0.24571330845355988,0.10117157548666
1705467154592496600,16.02349658203125,-0.09002361446619034,-0.23777230083942413,0.08345700800418854
1705467154611113500,16.042113525390626,-0.03687990456819534,-0.18523943424224854,0.06879667192697525
1705467154629731800,16.06073193359375,-0.0014507622690871358,-0.14064757525920868,0.06513158977031708
1705467154648348700,16.0793486328125,0.007101099472492933,-0.09361234307289124,0.07918107509613037
1705467154666967000,16.097967041015625,-0.016721943393349648,-0.02764083817601204,0.11033428460359573
1705467154685584000,16.116583984375,-0.058870404958724976,0.04016320779919624,0.126216322183609
1705467154704202200,16.1352021484375,-0.08330429345369339,0.10063708573579788,0.10666920244693756
1705467154722819300,16.1538193359375,-0.08819106966257095,0.12690351903438568,0.06513158977031708
1705467154741437700,16.172437744140623,-0.07536327838897705,0.17088451981544495,0.026037365198135376
1705467154760054500,16.191054443359373,-0.03993413969874382,0.2289150059223175,0.0028251686599105597
1705467154778673000,16.2096728515625,0.011377030052244663,0.25212720036506653,0.016874656081199646
1705467154797289700,16.228289794921874,0.06329904496669769,0.2148655205965042,0.028480753302574158
1705467154815908000,16.246908203125,0.11468657106161118,0.14217470586299896,0.03458922728896141
1705467154834525000,16.26552490234375,0.12629267573356628,0.04749337583780289,0.05169294774532318
1705467154853143300,16.284143310546874,0.11590826511383057,0.005955760832875967,0.03092414326965809
1705467154871760400,16.302760498046876,0.12140589207410812,0.033443886786699295,0.022372281178832054
1705467154890378800,16.321378662109375,0.11896250396966934,0.04932591691613197,0.05596888065338135
1705467154908995600,16.33999560546875,0.11529742181301117,0.05726693198084831,0.08040276914834976
1705467154927614000,16.358614013671875,0.10552386194467545,0.09513945877552032,0.06940752267837524
1705467154946230800,16.377230712890626,0.10979979485273361,0.12018419802188873,0.03458922728896141
1705467154964849400,16.395849365234376,0.111021488904953,0.1391204595565796,0.015652960166335106
1705467154983466200,16.41446630859375,0.10735640674829483,0.1372879147529602,0.03214583545923233
1705467155002084600,16.433084716796873,0.10674555599689484,0.1366770714521408,0.05963396281003952
1705467155020701400,16.451701416015624,0.09811734408140182,0.11590826511383057,0.0883437842130661
1705467155039320000,16.470320068359374,0.0877329409122467,0.07803573459386826,0.08467870205640793
1705467155057937000,16.48893701171875,0.09017632901668549,0.025502873584628105,0.05535803362727165
1705467155076555300,16.50755517578125,0.09384141117334366,0.0022906772792339325,0.01748550310730934
1705467155095172000,16.526172119140625,0.09261971712112427,0.008399149402976036,-0.010002624243497849
1705467155113790700,16.544790771484376,0.08956547826528549,0.026724567636847496,-0.03077143058180809
1705467155132407600,16.563407470703126,0.08712209016084671,0.050547610968351364,-0.040544986724853516
1705467155151026000,16.58202587890625,0.08651123940944672,0.08292251825332642,-0.04604261368513107
1705467155169642800,16.600642822265623,0.09628479927778244,0.111021488904953,-0.06192464008927345
1705467155188261400,16.619261474609374,0.11468657106161118,0.13973131775856018,-0.07108735293149948
1705467155206878200,16.637878173828124,0.1250709742307663,0.18432316184043884,-0.06497887521982193
1705467155225496600,16.65649658203125,0.12873606383800507,0.19776180386543274,-0.039323292672634125
1705467155244113700,16.67511376953125,0.12690351903438568,0.16660858690738678,0.015042114071547985
1705467155262732000,16.69373193359375,0.11835165321826935,0.111021488904953,0.07918107509613037
1705467155281348900,16.712348876953126,0.1104106456041336,0.06581879407167435,0.11827529966831207
1705467155299967500,16.730967529296876,0.1104106456041336,0.0584886260330677,0.09017632901668549
1705467155318584300,16.749584228515626,0.09689565002918243,0.07437065243721008,0.05474718660116196
1705467155337202700,16.76820263671875,0.09628479927778244,0.09147437661886215,0.018096350133419037
1705467155355819800,16.78681982421875,0.10124793648719788,0.11712995916604996,-0.0295497365295887
1705467155374438100,16.805438232421874,0.10246963053941727,0.14645062386989594,-0.082082599401474
1705467155393055000,16.824054931640624,0.09445225447416306,0.15561333298683167,-0.11079242080450058
1705467155411673600,16.842673583984375,0.06940752267837524,0.14095300436019897,-0.10957072675228119
1705467155430290400,16.86129052734375,0.04130854457616806,0.1372879147529602,-0.08635853230953217
1705467155448909000,16.879908935546876,0.04008685052394867,0.15988926589488983,-0.07291989028453827
1705467155467526000,16.89852587890625,0.06452073901891708,0.24907296895980835,-0.08391514420509338
1705467155486144500,16.91714453125,0.10857810080051422,0.2826695740222931,-0.07658497244119644
1705467155504761300,16.93576123046875,0.15316994488239288,0.2545706033706665,-0.0686439573764801
1705467155523379700,16.954379638671874,0.1910424828529358,0.17088451981544495,-0.07414158433675766
1705467155541996800,16.972996826171876,0.20936790108680725,0.07742489129304886,-0.08819106966257095
1705467155560615200,16.991615234375,0.20875705778598785,0.03405473381280899,-0.13766969740390778
1705467155579232300,17.010232177734373,0.20814619958400726,0.025502873584628105,-0.22196662425994873
1705467155597850600,17.0288505859375,0.2283041626214981,0.04504998400807381,-0.2757211923599243
1705467155616467700,17.0474677734375,0.2564031481742859,0.0590994730591774,-0.3288649022579193
1705467155635086000,17.066086181640625,0.2655658423900604,0.07498150318861008,-0.36368319392204285
1705467155653703200,17.084703125,0.2539597451686859,0.06581879407167435,-0.3429143726825714
1705467155672321500,17.103321533203125,0.20570281147956848,0.009009997360408306,-0.3025984466075897
1705467155690938600,17.121938720703124,0.16721943020820618,-0.03802524134516716,-0.3056527078151703
1705467155709557000,17.140556884765626,0.18187977373600006,-0.04291202127933502,-0.32581067085266113
1705467155728174000,17.159174072265625,0.1904316395521164,-0.02886253222823143,-0.34963369369506836
1705467155746792400,17.17779248046875,0.19837264716625214,0.03649812191724777,-0.4125509560108185
1705467155765409500,17.196409423828126,0.22280654311180115,0.08964183181524277,-0.48402008414268494
1705467155784028000,17.21502783203125,0.27595025300979614,0.11774080991744995,-0.5218926072120667
1705467155802645000,17.23364501953125,0.33947837352752686,0.10613471269607544,-0.504788875579834
1705467155821263400,17.252263427734373,0.37918344140052795,0.06887302547693253,-0.4211028218269348
1705467155839880400,17.27088037109375,0.40667155385017395,0.026724567636847496,-0.3423035442829132
1705467155858499000,17.2894990234375,0.41888850927352905,-0.05757235363125801,-0.3197021782398224
1705467155877116000,17.308115966796876,0.44332239031791687,-0.10338589549064636,-0.3429143726825714
1705467155895734500,17.326734619140623,0.45859357714653015,-0.072843536734581,-0.41743773221969604
1705467155914351600,17.3453515625,0.4622586667537689,-0.08139539510011673,-0.49196112155914307
1705467155932970000,17.363969970703124,0.40483900904655457,-0.125987246632576,-0.47852247953414917
1705467155951587000,17.382587158203126,0.3089359998703003,-0.13453911244869232,-0.4363740086555481
1705467155970205400,17.401205322265625,0.27595025300979614,-0.1253764033317566,-0.4479801058769226
1705467155988822500,17.419822509765623,0.2777827978134155,-0.04963133856654167,-0.46752721071243286
1705467156007441200,17.438441162109374,0.27350685000419617,0.13179029524326324,-0.4895177185535431
1705467156026058000,17.45705810546875,0.2313583940267563,0.23319093883037567,-0.49684789776802063
1705467156044676600,17.475676513671875,0.1647760421037674,0.1898207813501358,-0.45408856868743896
1705467156063293700,17.494293701171873,0.11590826511383057,0.08108997344970703,-0.3575747013092041
1705467156081912000,17.512912109375,0.10979979485273361,-0.011147962883114815,-0.24823305010795593
1705467156100529200,17.531529052734374,0.10430216789245605,-0.06734590977430344,-0.16821207106113434
1705467156119147500,17.5501474609375,0.12018419802188873,-0.06001574173569679,-0.14133478701114655
1705467156137764600,17.5687646484375,0.12262758612632751,-0.04291202127933502,-0.17859646677970886
1705467156156383200,17.58738330078125,0.11407572776079178,-0.04230117425322533,-0.20669543743133545
1705467156175000300,17.606000244140624,0.10308047384023666,-0.05635065957903862,-0.1877591758966446
1705467156193618700,17.62461865234375,0.08651123940944672,-0.07528692483901978,-0.13828055560588837
1705467156212235800,17.64323583984375,0.05596888065338135,-0.0587940476834774,-0.08330429345369339
1705467156230854400,17.6618544921875,0.049860406666994095,-0.010537114925682545,-0.06131379306316376
1705467156249471500,17.680471435546874,0.044362783432006836,0.009009997360408306,-0.041766680777072906
1705467156268089900,17.69908984375,0.04375193640589714,0.0065666078589856625,-0.02038702741265297
1705467156286707000,17.71770703125,0.04375193640589714,0.023059483617544174,-0.011835165321826935
1705467156305325600,17.73632568359375,0.044362783432006836,0.021837789565324783,-0.01122431829571724
1705467156323942700,17.754942626953124,0.04497363045811653,-0.0050394898280501366,-0.018554486334323883
1705467156342561000,17.77356103515625,0.03336753323674202,-0.027029991149902344,0.0009926267666742206
1705467156361178000,17.79217822265625,0.02970244735479355,-0.023975754156708717,0.039476003497838974
1705467156379796700,17.810796630859375,0.022372281178832054,0.007177455350756645,0.05413633957505226
1705467156398413800,17.829413818359374,0.023593975231051445,0.021226942539215088,0.043141089379787445
1705467156417032200,17.8480322265625,0.022372281178832054,0.010842538438737392,0.04619532451033592
1705467156435649300,17.866649169921875,0.01748550310730934,0.007788302376866341,0.05047125369310379
1705467156454268000,17.885267822265625,0.018096350133419037,-0.0038177953101694584,0.05719057470560074
1705467156472885000,17.903885009765624,0.027259059250354767,-0.014813045971095562,0.06390989571809769
1705467156491503600,17.922503662109374,0.0364217683672905,-0.014202198944985867,0.0755159929394722
1705467156510120700,17.94112060546875,0.0364217683672905,-0.005650337319821119,0.10666920244693756
1705467156528739000,17.959739013671875,0.03092414326965809,0.004734066314995289,0.14881765842437744
1705467156547356200,17.978356201171874,0.03336753323674202,-0.0007635590736754239,0.153704434633255
1705467156565974800,17.996974853515624,0.027259059250354767,-0.0038177953101694584,0.11888615041971207
1705467156584592000,18.015591796875,0.012598725035786629,-0.012369656935334206,0.0761268362402916
1705467156603210500,18.03421044921875,-0.02038702741265297,-0.023975754156708717,0.07795938104391098
1705467156621827600,18.05282763671875,-0.04359922185540199,-0.00015271181473508477,0.11338852345943451
1705467156640446200,18.0714462890625,-0.06131379306316376,0.0462716780602932,0.14820681512355804
1705467156659063300,18.090063232421876,-0.0558161698281765,0.08353336155414581,0.1530935913324356
1705467156677681700,18.108681640625,-0.041766680777072906,0.10430216789245605,0.12132953852415085
1705467156696298800,18.127298828125,-0.05825955793261528,0.11468657106161118,0.08223531395196915
1705467156714917400,18.14591748046875,-0.07902836054563522,0.07437065243721008,0.049860406666994095
1705467156733534500,18.164534423828126,-0.10162971168756485,-0.03008422814309597,0.08223531395196915
1705467156752153000,18.183153076171877,-0.12850698828697205,-0.10033166408538818,0.14942851662635803
1705467156770770200,18.201770263671875,-0.20974968373775482,-0.11926792562007904,0.2044047713279724
1705467156789388800,18.220388916015626,-0.3184804916381836,-0.06123743951320648,0.21478916704654694
1705467156808006000,18.239005859375,-0.39117130637168884,0.07314895838499069,0.18974442780017853
1705467156826624500,18.25762451171875,-0.40460994839668274,0.17332790791988373,0.20257222652435303
1705467156845241600,18.27624169921875,-0.4113292694091797,0.25212720036506653,0.26365694403648376
1705467156863860200,18.294860107421876,-0.4504235088825226,0.23746687173843384,0.3656684458255768
1705467156882477300,18.313477294921874,-0.5365529656410217,0.20692451298236847,0.468290776014328
1705467156901096000,18.332095947265625,-0.5933617353439331,0.26006820797920227,0.5342622995376587
1705467156919713000,18.350713134765623,-0.6043570041656494,0.3889569938182831,0.5031090974807739
1705467156938331600,18.36933154296875,-0.6006919145584106,0.48302745819091797,0.4530195891857147
1705467156956948700,18.38794873046875,-0.6000810861587524,0.4378247857093811,0.4548521339893341
1705467156975567400,18.4065673828125,-0.6092438101768494,0.3217637836933136,0.5574744939804077
1705467156994184400,18.425184326171873,-0.6129088401794434,0.2918322682380676,0.6918608546257019
1705467157012803000,18.443802978515624,-0.5658736228942871,0.4005630910396576,0.7724927067756653
1705467157031420200,18.462420166015626,-0.6092438101768494,0.4769189953804016,0.8476269245147705
1705467157050038800,18.481038818359377,-0.768674910068512,0.5196782946586609,0.8946621417999268
1705467157068655900,18.49965576171875,-0.912834882736206,0.49952033162117004,0.863508939743042
1705467157087274500,18.5182744140625,-0.9971317648887634,0.44698747992515564,0.7926506996154785
1705467157105891600,18.5368916015625,-1.003851056098938,0.45859357714653015,0.7156839370727539
1705467157124510200,18.55551025390625,-0.9794172048568726,0.530062735080719,0.6271110773086548
1705467157143127300,18.574127197265625,-0.8712972402572632,0.5801522135734558,0.5281538367271423
1705467157161746000,18.592745849609376,-0.7656207084655762,0.5227325558662415,0.39682164788246155
1705467157180363000,18.611363037109374,-0.7442410588264465,0.4940227270126343,0.2569376230239868
1705467157198981600,18.629981689453125,-0.7790593504905701,0.6119162440299988,0.18730103969573975
1705467157217598700,18.6485986328125,-0.791887104511261,0.7120952010154724,0.16042375564575195
1705467157236217600,18.667217529296874,-0.7393542528152466,0.7475243210792542,0.1402658075094223
1705467157254834700,18.685834716796876,-0.6147413849830627,0.8244910836219788,0.08956547826528549
1705467157273453300,18.704453369140627,-0.5102865099906921,0.9802571535110474,0.016874656081199646
1705467157292070400,18.7230703125,-0.4748573899269104,1.1018157005310059,-0.014278554357588291
1705467157310689000,18.74168896484375,-0.473024845123291,1.1103676557540894,0.029091600328683853
1705467157329306000,18.76030615234375,-0.49379366636276245,1.0926530361175537,0.08223531395196915
1705467157347924700,18.7789248046875,-0.5249468684196472,1.1128109693527222,0.09445225447416306
1705467157366541800,18.797541748046875,-0.5438831448554993,1.1421316862106323,0.04619532451033592
1705467157385160700,18.81616064453125,-0.5371637940406799,1.107924222946167,-0.012446013279259205
1705467157403777800,18.83477783203125,-0.4889068603515625,1.0676082372665405,-0.08452598750591278
1705467157422396400,18.853396484375,-0.39056047797203064,0.9527690410614014,-0.08635853230953217
1705467157441013500,18.872013427734377,-0.373456746339798,0.8837432861328125,-0.006948387715965509
1705467157459632000,18.890632080078124,-0.35329878330230713,0.918561577796936,0.10911259055137634
1705467157478249500,18.90924951171875,-0.35329878330230713,0.9888089895248413,0.13904410600662231
1705467157496868000,18.9278681640625,-0.3581855595111847,1.0633323192596436,0.08590039610862732
1705467157515485200,18.946485107421875,-0.3722350597381592,1.074938416481018,0.10972344130277634
1705467157534103800,18.965103759765626,-0.40033403038978577,1.006523609161377,0.23677967488765717
1705467157552721000,18.983720947265624,-0.44492587447166443,1.02851402759552,0.3375694751739502
1705467157571339500,19.002339599609375,-0.4791333079338074,1.1427425146102905,0.389491468667984
1705467157589956900,19.020956787109377,-0.4595862030982971,1.1647330522537231,0.3992650508880615
1705467157608575500,19.039575439453124,-0.3697916567325592,1.0975397825241089,0.3668901324272156
1705467157627192600,19.058192626953126,-0.26045000553131104,1.001025915145874,0.3149681091308594
1705467157645811500,19.0768115234375,-0.1743205338716507,0.9527690410614014,0.32901760935783386
1705467157664428500,19.095428466796875,-0.11812258511781693,0.9698727130889893,0.3503972589969635
1705467157683047200,19.114047119140626,-0.05215108394622803,1.0834903717041016,0.308859646320343
1705467157701664300,19.132664306640624,0.06879667192697525,1.0841012001037598,0.1921878159046173
1705467157720283100,19.151283203125,0.17088451981544495,0.9765920639038086,0.06940752267837524
1705467157738900200,19.169900146484373,0.2020377367734909,0.871526300907135,0.05841226875782013
1705467157757518800,19.188518798828124,0.19348587095737457,0.9142856597900391,0.1402658075094223
1705467157776136000,19.207135986328126,0.13973131775856018,1.10364830493927,0.21234577894210815
1705467157794754800,19.2257548828125,0.01382041908800602,1.2691879272460938,0.22761696577072144
1705467157813372000,19.244371826171875,-0.17126630246639252,1.1555702686309814,0.33268269896507263
1705467157831990500,19.262990478515626,-0.2677801549434662,0.950325608253479,0.4829511046409607
1705467157850607900,19.28160791015625,-0.211582213640213,0.8513683676719666,0.43469417095184326
1705467157869226500,19.3002265625,-0.13217207789421082,0.8782456517219543,0.17752748727798462
1705467157887843600,19.318843505859373,-0.06742226332426071,0.9283351302146912,-0.09002361446619034
1705467157906462500,19.33746240234375,0.02176143415272236,0.9448279738426208,-0.237237811088562
1705467157925079600,19.35607958984375,0.06635328382253647,1.015686273574829,-0.3154262602329254
1705467157943698200,19.3746982421875,-0.0051158457063138485,1.1494618654251099,-0.4113292694091797
1705467157962315500,19.3933154296875,-0.13033953309059143,1.2752963304519653,-0.49257194995880127
1705467157980934100,19.41193408203125,-0.17676392197608948,1.4023525714874268,-0.4650838375091553
1705467157999551200,19.43055126953125,-0.1456107199192047,1.4420576095581055,-0.3813977539539337
1705467158018170000,19.449170166015627,-0.14499986171722412,1.3705885410308838,-0.29526829719543457
1705467158036787200,19.467787109375,-0.20180866122245789,1.2691879272460938,-0.20730629563331604
1705467158055406000,19.486406005859376,-0.2500655949115753,1.1176977157592773,-0.14133478701114655
1705467158074023200,19.505023193359374,-0.3142045736312866,1.0120211839675903,-0.020997874438762665
1705467158092641800,19.523641845703125,-0.3832302987575531,0.9320002198219299,0.23555797338485718
1705467158111259100,19.542259033203123,-0.4632512927055359,0.8965710401535034,0.47562095522880554
1705467158129877800,19.560877685546874,-0.4992912709712982,0.9032903909683228,0.6087856292724609
1705467158148495000,19.5794951171875,-0.47852247953414917,0.8086090683937073,0.6405497193336487
1705467158167113700,19.59811376953125,-0.3600181043148041,0.6284091472625732,0.6014555096626282
1705467158185731000,19.61673095703125,-0.20913882553577423,0.6290199756622314,0.5055524706840515
1705467158204349700,19.635349609375,-0.050929389894008636,0.6449019908905029,0.4133145213127136
1705467158222967000,19.653967041015626,0.0626882016658783,0.6009209752082825,0.32046574354171753
1705467158241585700,19.672585693359373,0.1256818175315857,0.5325061082839966,0.2441098392009735
1705467158260202800,19.69120263671875,0.188599094748497,0.39140036702156067,0.1811925619840622
1705467158278821600,19.709821533203126,0.2814478874206543,0.2918322682380676,0.11094513535499573
1705467158297438700,19.728438720703124,0.3474193811416626,0.31260108947753906,0.010155336000025272
1705467158316057600,19.7470576171875,0.36513394117355347,0.43354883790016174,-0.06253548711538315
1705467158334674700,19.7656748046875,0.3620797097682953,0.43049460649490356,-0.10285140573978424
1705467158353293600,19.78429345703125,0.3370349705219269,0.3248180150985718,-0.14194563031196594
1705467158371910700,19.80291064453125,0.3064926266670227,0.2044811248779297,-0.19508934020996094
1705467158390529500,19.821529541015625,0.2692309319972992,0.14767232537269592,-0.21646900475025177
1705467158409146600,19.840146728515624,0.25090551376342773,0.1366770714521408,-0.237237811088562
1705467158427765500,19.858765625,0.21914145350456238,0.15683503448963165,-0.2140256017446518
1705467158446382600,19.877382568359376,0.1910424828529358,0.10674555599689484,-0.18226155638694763
1705467158465001500,19.89600146484375,0.2020377367734909,0.05787777900695801,-0.1877591758966446
1705467158483618800,19.914618896484374,0.24662958085536957,0.04749337583780289,-0.25800660252571106
1705467158502237400,19.933237548828124,0.26373329758644104,0.09513945877552032,-0.3581855595111847
1705467158520854500,19.9518544921875,0.23502348363399506,0.1513374149799347,-0.4492017924785614
1705467158539473400,19.970473388671873,0.1916533261537552,0.15805672109127045,-0.48218756914138794
1705467158558090800,19.9890908203125,0.1519482582807541,0.13301199674606323,-0.45714282989501953
1705467158576709400,20.00770947265625,0.10796725004911423,0.09636115282773972,-0.40216657519340515
1705467158595326700,20.02632666015625,0.06757497787475586,0.111021488904953,-0.38811707496643066
1705467158613945300,20.0449453125,0.06696412712335587,0.11346487700939178,-0.40522080659866333
1705467158632562700,20.063562744140626,0.10674555599689484,0.0590994730591774,-0.4217136800289154
1705467158651181600,20.082181640625,0.17149536311626434,-0.06551336497068405,-0.45531028509140015
1705467158669798700,20.100798583984375,0.2289150059223175,-0.1626380831003189,-0.4766899347305298
1705467158688417500,20.11941748046875,0.2545706033706665,-0.15958385169506073,-0.4742465317249298
1705467158707034600,20.13803466796875,0.21242213249206543,-0.08139539510011673,-0.4131618142127991
1705467158725653500,20.156653564453126,0.1776038408279419,-0.06551336497068405,-0.2916032075881958
1705467158744270800,20.175270751953125,0.1757712960243225,-0.0844496339559555,-0.1492757946252823
1705467158762889500,20.193889404296876,0.19592925906181335,-0.14736689627170563,-0.04421006888151169
1705467158781506800,20.2125068359375,0.20509196817874908,-0.18707197904586792,-0.016111096367239952
1705467158800125400,20.23112548828125,0.20020519196987152,-0.1632489264011383,-0.02710634656250477
1705467158818742800,20.24974267578125,0.17882554233074188,-0.09544488787651062,-0.05215108394622803
1705467158837361700,20.268361572265626,0.17088451981544495,-0.06429167091846466,-0.0686439573764801
1705467158855978800,20.286978759765624,0.15988926589488983,-0.09544488787651062,-0.06314633786678314
1705467158874597600,20.30559765625,0.16111096739768982,-0.10277505218982697,-0.047264307737350464
1705467158893215000,20.324215087890625,0.15988926589488983,-0.07834116369485855,-0.0014507622690871358
1705467158911833600,20.34283349609375,0.14828316867351532,-0.055739812552928925,0.060244809836149216
1705467158930451000,20.361450927734374,0.12629267573356628,-0.07345438003540039,0.13660071790218353
1705467158949069800,20.38006982421875,0.111632339656353,-0.14736689627170563,0.22883865237236023
1705467158967687000,20.39868701171875,0.15866757929325104,-0.24998924136161804,0.2569376230239868
1705467158986305800,20.417305908203126,0.20570281147956848,-0.3336753249168396,0.22639526426792145
1705467159004923100,20.435923095703124,0.2289150059223175,-0.2438807636499405,0.1653105467557907
1705467159023542000,20.4545419921875,0.19898349046707153,-0.08322793990373611,0.13721156120300293
1705467159042159000,20.4731591796875,0.13179029524326324,0.03649812191724777,0.18424680829048157
1705467159060778000,20.491778076171876,0.10246963053941727,0.2307475507259369,0.2434989959001541
1705467159079395300,20.510395263671874,0.10491301864385605,0.24052110314369202,0.2752630412578583
1705467159098014000,20.529013916015625,0.11285403370857239,0.2557922899723053,0.23006035387516022
1705467159116631300,20.54763134765625,0.07368344813585281,0.28999972343444824,0.18180342018604279
1705467159135250200,20.566250244140626,0.033978380262851715,0.2985515892505646,0.11705360561609268
1705467159153867500,20.584867431640625,-0.019776180386543274,0.4127800464630127,0.12438376992940903
1705467159172486100,20.603486083984375,-0.10529479384422302,0.44515493512153625,0.24838577210903168
1705467159191103500,20.622103515625,-0.11873343586921692,0.27472856640815735,0.35955995321273804
1705467159209722400,20.640722412109376,-0.07902836054563522,0.04016320779919624,0.4029301106929779
1705467159228339700,20.659339599609375,-0.039323292672634125,-0.0850604772567749,0.4035409688949585
1705467159246958600,20.67795849609375,-0.04359922185540199,-0.001374406274408102,0.39743250608444214
1705467159265575700,20.69657568359375,-0.07597412914037704,0.111632339656353,0.37299859523773193
1705467159284194600,20.715194580078126,-0.10346225649118423,0.06704048812389374,0.34184539318084717
1705467159302812000,20.73381201171875,-0.14011308550834656,0.005344913341104984,0.3265742063522339
1705467159321430800,20.7524306640625,-0.19570018351078033,0.04871506989002228,0.3491755723953247
1705467159340048100,20.771048095703126,-0.24334627389907837,0.20142687857151031,0.37299859523773193
1705467159358666800,20.789666748046876,-0.2628933787345886,0.2044811248779297,0.3736094534397125
1705467159377284000,20.8082841796875,-0.2665584683418274,0.10857810080051422,0.3742203116416931
1705467159395903000,20.826903076171874,-0.24395711719989777,0.007177455350756645,0.3400128483772278
1705467159414520300,20.845520263671876,-0.2140256017446518,-0.02886253222823143,0.25449424982070923
1705467159433139200,20.86413916015625,-0.16882291436195374,0.01511846948415041,0.15003935992717743
1705467159451756300,20.88275634765625,-0.13889139890670776,0.04810422286391258,0.08528954535722733
1705467159470375200,20.901375244140624,-0.12911784648895264,0.05421269312500954,0.060244809836149216
1705467159488992500,20.919992431640626,-0.12484190613031387,0.06337540596723557,0.043141089379787445
1705467159507611400,20.938611328125,-0.09735377877950668,0.06704048812389374,-0.002672456670552492
1705467159526228700,20.957228759765623,-0.06986565887928009,0.04443913698196411,-0.026495499536395073
1705467159544847600,20.97584765625,-0.05154023692011833,0.04932591691613197,-0.040544986724853516
1705467159563465000,20.99446484375,-0.016721943393349648,0.08047912269830704,-0.06681142002344131
1705467159582083600,21.01308349609375,0.027259059250354767,0.021226942539215088,-0.09002361446619034
1705467159600701000,21.031700927734374,0.05841226875782013,-0.047798797488212585,-0.0949103906750679
1705467159619319800,21.05031982421875,0.08162446320056915,-0.09972081333398819,-0.08696937561035156
1705467159637937200,21.068937255859375,0.0761268362402916,-0.10033166408538818,-0.04787515476346016
1705467159656556000,21.08755615234375,0.0358109213411808,-0.00992626789957285,-0.02283041551709175
1705467159675173400,21.10617333984375,0.007711946498602629,0.052990999072790146,-0.06314633786678314
1705467159693792300,21.124792236328126,0.007711946498602629,0.06337540596723557,-0.14255647361278534
1705467159712409600,21.14340966796875,0.030313294380903244,0.020616095513105392,-0.21769069135189056
1705467159731028500,21.162028564453124,0.03703261539340019,-0.01969982497394085,-0.2384594976902008
1705467159749645800,21.180645751953126,0.02664821222424507,-0.024586603045463562,-0.20425204932689667
1705467159768264400,21.199264404296876,0.015042114071547985,0.005955760832875967,-0.14377817511558533
1705467159786881800,21.2178818359375,0.010155336000025272,0.03588727489113808,-0.08635853230953217
1705467159805500700,21.236500732421874,0.023593975231051445,0.05238015204668045,-0.08025006204843521
1705467159824118000,21.255117919921876,0.05535803362727165,0.008399149402976036,-0.08941277116537094
1705467159842737000,21.27373681640625,0.09872818738222122,-0.0716218426823616,-0.07291989028453827
1705467159861354200,21.292354248046873,0.15378080308437347,-0.11987877637147903,-0.06436803191900253
1705467159879973000,21.31097314453125,0.18676654994487762,-0.1516428291797638,-0.06253548711538315
1705467159898590500,21.329590576171874,0.19409671425819397,-0.1785201132297516,-0.08452598750591278
1705467159917209300,21.348209228515625,0.188599094748497,-0.17302247881889343,-0.09368869662284851
1705467159935826700,21.36682666015625,0.15316994488239288,-0.10766182839870453,-0.05825955793261528
1705467159954445600,21.385445556640626,0.10857810080051422,-0.04291202127933502,-0.017332790419459343
1705467159973063000,21.40406298828125,0.0620773509144783,0.018783552572131157,0.012598725035786629
1705467159991681800,21.422681884765623,0.0028251686599105597,0.06154286116361618,0.057801421731710434
1705467160010299100,21.441299072265625,-0.025884652510285378,0.03649812191724777,0.07734853774309158
1705467160028918000,21.45991796875,-0.03871244564652443,-0.0068720318377017975,0.08712209016084671
1705467160047535400,21.478535400390626,-0.04115583375096321,-0.027029991149902344,0.07307260483503342
1705467160066154200,21.497154296875,-0.02832804247736931,-0.019088976085186005,0.010766183026134968
1705467160084771600,21.515771484375,0.0016034740256145597,-0.01725643500685692,-0.07047650218009949
1705467160103390500,21.534390380859374,0.015042114071547985,-0.008093725889921188,-0.11995512992143631
1705467160122007800,21.5530078125,0.013209572061896324,0.0022906772792339325,-0.12239851802587509
1705467160140626700,21.571626708984375,0.010155336000025272,-0.02214321307837963,-0.10468395054340363
1705467160159244000,21.590244140625,0.016874656081199646,-0.04718795046210289,-0.0949103906750679
1705467160177863000,21.60886279296875,0.04375193640589714,-0.08872556686401367,-0.09002361446619034
1705467160196480300,21.627480224609375,0.06757497787475586,-0.07650861889123917,-0.07841751724481583
1705467160215099100,21.64609912109375,0.07734853774309158,-0.04840964451432228,-0.057648710906505585
1705467160233716500,21.664716552734376,0.0877329409122467,-0.05329642444849014,-0.04359922185540199
1705467160252335400,21.68333544921875,0.10674555599689484,-0.08078455179929733,-0.044820915907621384
1705467160270952700,21.70195263671875,0.12018419802188873,-0.12293300777673721,-0.06192464008927345
1705467160289571600,21.720571533203124,0.12873606383800507,-0.1760767251253128,-0.07658497244119644
1705467160308189000,21.73918896484375,0.1250709742307663,-0.18279604613780975,-0.057648710906505585
1705467160326808000,21.75780810546875,0.09323056042194366,-0.14492350816726685,0.0022143214009702206
1705467160345425400,21.77642529296875,0.040697697550058365,-0.09239064902067184,0.059023115783929825
1705467160364044300,21.795044189453126,0.0009926267666742206,-0.05329642444849014,0.08223531395196915
1705467160382661600,21.81366162109375,-0.02710634656250477,0.005955760832875967,0.0749051421880722
1705467160401280500,21.832280517578123,-0.04665346071124077,0.02244863659143448,0.060244809836149216
1705467160419897900,21.85089794921875,-0.05154023692011833,0.02489202655851841,0.026037365198135376
1705467160438516700,21.869516845703124,-0.041766680777072906,-0.00015271181473508477,-0.0130568603053689
1705467160457134000,21.888134033203126,-0.03077143058180809,-0.06856760382652283,-0.00022906772210262716
1705467160475753000,21.9067529296875,-0.023441264405846596,-0.11804623156785965,0.022372281178832054
1705467160494370300,21.925370361328124,-0.02405211143195629,-0.13270656764507294,0.026037365198135376
1705467160512989400,21.943989501953126,-0.047264307737350464,-0.09605573117733002,0.007711946498602629
1705467160531606800,21.962606689453125,-0.06131379306316376,-0.06429167091846466,-0.014889402315020561
1705467160550225700,21.9812255859375,-0.06192464008927345,-0.03802524134516716,-0.0295497365295887
1705467160568843000,21.999843017578126,-0.05337277799844742,0.014507622458040714,-0.0295497365295887
1705467160587462000,22.0184619140625,-0.025884652510285378,0.029167955741286278,-0.032603971660137177
1705467160606079200,22.037079345703123,-0.002061609411612153,0.009009997360408306,-0.0295497365295887
1705467160624698000,22.055697998046874,0.012598725035786629,-0.0038177953101694584,-0.007559234742075205
